time,.header.seq,.header.stamp.secs,.header.stamp.nsecs,.header.frame_id,.orientation.x,.orientation.y,.orientation.z,.orientation.w,.orientation_covariance,.angular_velocity.x,.angular_velocity.y,.angular_velocity.z,.angular_velocity_covariance,.linear_acceleration.x,.linear_acceleration.y,.linear_acceleration.z,.linear_acceleration_covariance
2025/07/11/14:09:30.966074,11,1752242970,965505426,imu_link,0.0037886768979205785,-0.0076809242403804885,-0.9675406232251358,0.2525703698759864,"(0.001, 0.0, 0.0, 0.0, 0.001, 0.0, 0.0, 0.0, 0.001)",0.0,0.0,0.0,"(1e-05, 0.0, 0.0, 0.0, 1e-05, 0.0, 0.0, 0.0, 1e-05)",-0.033496093750000004,0.14833984375,9.80478515625,"(0.01, 0.0, 0.0, 0.0, 0.01, 0.0, 0.0, 0.0, 0.01)"
2025/07/11/14:09:30.973667,12,1752242970,973373994,imu_link,0.0037886768979205785,-0.0076809242403804885,-0.9675406232251358,0.2525703698759864,"(0.001, 0.0, 0.0, 0.0, 0.001, 0.0, 0.0, 0.0, 0.001)",0.0,0.0,0.0,"(1e-05, 0.0, 0.0, 0.0, 1e-05, 0.0, 0.0, 0.0, 1e-05)",-0.033496093750000004,0.14833984375,9.8095703125,"(0.01, 0.0, 0.0, 0.0, 0.01, 0.0, 0.0, 0.0, 0.01)"
2025/07/11/14:09:31.023789,13,1752242971,23445991,imu_link,0.0037886768979205785,-0.0076809242403804885,-0.9675406232251358,0.2525703698759864,"(0.001, 0.0, 0.0, 0.0, 0.001, 0.0, 0.0, 0.0, 0.001)",0.0,0.0,0.0,"(1e-05, 0.0, 0.0, 0.0, 1e-05, 0.0, 0.0, 0.0, 1e-05)",-0.033496093750000004,0.14833984375,9.8095703125,"(0.01, 0.0, 0.0, 0.0, 0.01, 0.0, 0.0, 0.0, 0.01)"
2025/07/11/14:09:31.066246,14,1752242971,65526459,imu_link,0.0037886768979205785,-0.0076809242403804885,-0.9675406232251358,0.2525703698759864,"(0.001, 0.0, 0.0, 0.0, 0.001, 0.0, 0.0, 0.0, 0.001)",0.0,0.0,0.0,"(1e-05, 0.0, 0.0, 0.0, 1e-05, 0.0, 0.0, 0.0, 1e-05)",-0.033496093750000004,0.14833984375,9.8095703125,"(0.01, 0.0, 0.0, 0.0, 0.01, 0.0, 0.0, 0.0, 0.01)"
2025/07/11/14:09:31.074239,15,1752242971,73706876,imu_link,0.0037886768979205785,-0.0076809242403804885,-0.9675406232251358,0.2525703698759864,"(0.001, 0.0, 0.0, 0.0, 0.001, 0.0, 0.0, 0.0, 0.001)",0.0,0.0,0.0,"(1e-05, 0.0, 0.0, 0.0, 1e-05, 0.0, 0.0, 0.0, 1e-05)",-0.033496093750000004,0.14833984375,9.8095703125,"(0.01, 0.0, 0.0, 0.0, 0.01, 0.0, 0.0, 0.0, 0.01)"
2025/07/11/14:09:31.124690,16,1752242971,124280548,imu_link,0.003788308693879602,-0.007681105848976299,-0.9675527295537144,0.2525239886888638,"(0.001, 0.0, 0.0, 0.0, 0.001, 0.0, 0.0, 0.0, 0.001)",0.0,0.0,0.0,"(1e-05, 0.0, 0.0, 0.0, 1e-05, 0.0, 0.0, 0.0, 1e-05)",-0.033496093750000004,0.14833984375,9.8095703125,"(0.01, 0.0, 0.0, 0.0, 0.01, 0.0, 0.0, 0.0, 0.01)"
2025/07/11/14:09:31.166202,17,1752242971,165502225,imu_link,0.003788308693879602,-0.007681105848976299,-0.9675527295537144,0.2525239886888638,"(0.001, 0.0, 0.0, 0.0, 0.001, 0.0, 0.0, 0.0, 0.001)",0.0,0.0,0.0,"(1e-05, 0.0, 0.0, 0.0, 1e-05, 0.0, 0.0, 0.0, 1e-05)",-0.033496093750000004,0.14833984375,9.8095703125,"(0.01, 0.0, 0.0, 0.0, 0.01, 0.0, 0.0, 0.0, 0.01)"
2025/07/11/14:09:31.174644,18,1752242971,174247595,imu_link,0.003788308693879602,-0.007681105848976299,-0.9675527295537144,0.2525239886888638,"(0.001, 0.0, 0.0, 0.0, 0.001, 0.0, 0.0, 0.0, 0.001)",0.0,0.0,0.0,"(1e-05, 0.0, 0.0, 0.0, 1e-05, 0.0, 0.0, 0.0, 1e-05)",-0.033496093750000004,0.14833984375,9.8095703125,"(0.01, 0.0, 0.0, 0.0, 0.01, 0.0, 0.0, 0.0, 0.01)"
2025/07/11/14:09:31.224836,19,1752242971,224471280,imu_link,0.003788308693879602,-0.007681105848976299,-0.9675527295537144,0.2525239886888638,"(0.001, 0.0, 0.0, 0.0, 0.001, 0.0, 0.0, 0.0, 0.001)",0.0,0.0,0.0,"(1e-05, 0.0, 0.0, 0.0, 1e-05, 0.0, 0.0, 0.0, 1e-05)",-0.028710937500000002,0.14833984375,9.8095703125,"(0.01, 0.0, 0.0, 0.0, 0.01, 0.0, 0.0, 0.0, 0.01)"
2025/07/11/14:09:31.266136,20,1752242971,265520923,imu_link,0.003788308693879602,-0.007681105848976299,-0.9675527295537144,0.2525239886888638,"(0.001, 0.0, 0.0, 0.0, 0.001, 0.0, 0.0, 0.0, 0.001)",0.0,0.0,0.0,"(1e-05, 0.0, 0.0, 0.0, 1e-05, 0.0, 0.0, 0.0, 1e-05)",-0.028710937500000002,0.14833984375,9.8095703125,"(0.01, 0.0, 0.0, 0.0, 0.01, 0.0, 0.0, 0.0, 0.01)"
2025/07/11/14:09:31.275130,21,1752242971,274744421,imu_link,0.003788308693879602,-0.007681105848976299,-0.9675527295537144,0.2525239886888638,"(0.001, 0.0, 0.0, 0.0, 0.001, 0.0, 0.0, 0.0, 0.001)",0.0,0.0,0.0,"(1e-05, 0.0, 0.0, 0.0, 1e-05, 0.0, 0.0, 0.0, 1e-05)",-0.033496093750000004,0.153125,9.8095703125,"(0.01, 0.0, 0.0, 0.0, 0.01, 0.0, 0.0, 0.0, 0.01)"
2025/07/11/14:09:31.325592,22,1752242971,325198434,imu_link,0.003788308693879602,-0.007681105848976299,-0.9675527295537144,0.2525239886888638,"(0.001, 0.0, 0.0, 0.0, 0.001, 0.0, 0.0, 0.0, 0.001)",0.0,0.0,0.0,"(1e-05, 0.0, 0.0, 0.0, 1e-05, 0.0, 0.0, 0.0, 1e-05)",-0.033496093750000004,0.14833984375,9.8095703125,"(0.01, 0.0, 0.0, 0.0, 0.01, 0.0, 0.0, 0.0, 0.01)"
2025/07/11/14:09:31.366233,23,1752242971,365505117,imu_link,0.003788308693879602,-0.007681105848976299,-0.9675527295537144,0.2525239886888638,"(0.001, 0.0, 0.0, 0.0, 0.001, 0.0, 0.0, 0.0, 0.001)",0.0,0.0,0.0,"(1e-05, 0.0, 0.0, 0.0, 1e-05, 0.0, 0.0, 0.0, 1e-05)",-0.033496093750000004,0.14833984375,9.8095703125,"(0.01, 0.0, 0.0, 0.0, 0.01, 0.0, 0.0, 0.0, 0.01)"
2025/07/11/14:09:31.375680,24,1752242971,375254645,imu_link,0.003788308693879602,-0.007681105848976299,-0.9675527295537144,0.2525239886888638,"(0.001, 0.0, 0.0, 0.0, 0.001, 0.0, 0.0, 0.0, 0.001)",0.0,0.0,0.0,"(1e-05, 0.0, 0.0, 0.0, 1e-05, 0.0, 0.0, 0.0, 1e-05)",-0.033496093750000004,0.14833984375,9.8095703125,"(0.01, 0.0, 0.0, 0.0, 0.01, 0.0, 0.0, 0.0, 0.01)"
2025/07/11/14:09:31.425909,25,1752242971,425506470,imu_link,0.0037879404811332956,-0.007681287439921342,-0.9675648336589091,0.2524776069214544,"(0.001, 0.0, 0.0, 0.0, 0.001, 0.0, 0.0, 0.0, 0.001)",0.0,0.0,0.0,"(1e-05, 0.0, 0.0, 0.0, 1e-05, 0.0, 0.0, 0.0, 1e-05)",-0.028710937500000002,0.14833984375,9.8095703125,"(0.01, 0.0, 0.0, 0.0, 0.01, 0.0, 0.0, 0.0, 0.01)"
2025/07/11/14:09:31.466307,26,1752242971,465734413,imu_link,0.0037879404811332956,-0.007681287439921342,-0.9675648336589091,0.2524776069214544,"(0.001, 0.0, 0.0, 0.0, 0.001, 0.0, 0.0, 0.0, 0.001)",0.0,0.0,0.0,"(1e-05, 0.0, 0.0, 0.0, 1e-05, 0.0, 0.0, 0.0, 1e-05)",-0.028710937500000002,0.14833984375,9.8095703125,"(0.01, 0.0, 0.0, 0.0, 0.01, 0.0, 0.0, 0.0, 0.01)"
2025/07/11/14:09:31.476598,27,1752242971,476107431,imu_link,0.0037879404811332956,-0.007681287439921342,-0.9675648336589091,0.2524776069214544,"(0.001, 0.0, 0.0, 0.0, 0.001, 0.0, 0.0, 0.0, 0.001)",0.0,0.0,0.0,"(1e-05, 0.0, 0.0, 0.0, 1e-05, 0.0, 0.0, 0.0, 1e-05)",-0.028710937500000002,0.14833984375,9.8095703125,"(0.01, 0.0, 0.0, 0.0, 0.01, 0.0, 0.0, 0.0, 0.01)"
2025/07/11/14:09:31.526747,28,1752242971,526355057,imu_link,0.0037879404811332956,-0.007681287439921342,-0.9675648336589091,0.2524776069214544,"(0.001, 0.0, 0.0, 0.0, 0.001, 0.0, 0.0, 0.0, 0.001)",0.0,0.0,0.0,"(1e-05, 0.0, 0.0, 0.0, 1e-05, 0.0, 0.0, 0.0, 1e-05)",-0.033496093750000004,0.153125,9.814355468750001,"(0.01, 0.0, 0.0, 0.0, 0.01, 0.0, 0.0, 0.0, 0.01)"
2025/07/11/14:09:31.566209,29,1752242971,565719299,imu_link,0.0037879404811332956,-0.007681287439921342,-0.9675648336589091,0.2524776069214544,"(0.001, 0.0, 0.0, 0.0, 0.001, 0.0, 0.0, 0.0, 0.001)",0.0,0.0,0.0,"(1e-05, 0.0, 0.0, 0.0, 1e-05, 0.0, 0.0, 0.0, 1e-05)",-0.033496093750000004,0.153125,9.814355468750001,"(0.01, 0.0, 0.0, 0.0, 0.01, 0.0, 0.0, 0.0, 0.01)"
2025/07/11/14:09:31.576976,30,1752242971,576480568,imu_link,0.0037879404811332956,-0.007681287439921342,-0.9675648336589091,0.2524776069214544,"(0.001, 0.0, 0.0, 0.0, 0.001, 0.0, 0.0, 0.0, 0.001)",0.0,0.0,0.0,"(1e-05, 0.0, 0.0, 0.0, 1e-05, 0.0, 0.0, 0.0, 1e-05)",-0.033496093750000004,0.14833984375,9.8095703125,"(0.01, 0.0, 0.0, 0.0, 0.01, 0.0, 0.0, 0.0, 0.01)"
2025/07/11/14:09:31.627062,31,1752242971,626641006,imu_link,0.0037879404811332956,-0.007681287439921342,-0.9675648336589091,0.2524776069214544,"(0.001, 0.0, 0.0, 0.0, 0.001, 0.0, 0.0, 0.0, 0.001)",0.0,0.0,0.0,"(1e-05, 0.0, 0.0, 0.0, 1e-05, 0.0, 0.0, 0.0, 1e-05)",-0.033496093750000004,0.14833984375,9.8095703125,"(0.01, 0.0, 0.0, 0.0, 0.01, 0.0, 0.0, 0.0, 0.01)"
2025/07/11/14:09:31.666048,32,1752242971,665569383,imu_link,0.0037879404811332956,-0.007681287439921342,-0.9675648336589091,0.2524776069214544,"(0.001, 0.0, 0.0, 0.0, 0.001, 0.0, 0.0, 0.0, 0.001)",0.0,0.0,0.0,"(1e-05, 0.0, 0.0, 0.0, 1e-05, 0.0, 0.0, 0.0, 1e-05)",-0.033496093750000004,0.14833984375,9.8095703125,"(0.01, 0.0, 0.0, 0.0, 0.01, 0.0, 0.0, 0.0, 0.01)"
2025/07/11/14:09:31.677543,33,1752242971,677043236,imu_link,0.0037879404811332956,-0.007681287439921342,-0.9675648336589091,0.2524776069214544,"(0.001, 0.0, 0.0, 0.0, 0.001, 0.0, 0.0, 0.0, 0.001)",0.0,0.0,0.0,"(1e-05, 0.0, 0.0, 0.0, 1e-05, 0.0, 0.0, 0.0, 1e-05)",-0.033496093750000004,0.14833984375,9.8095703125,"(0.01, 0.0, 0.0, 0.0, 0.01, 0.0, 0.0, 0.0, 0.01)"
2025/07/11/14:09:31.727249,34,1752242971,726971881,imu_link,0.003741558769741254,-0.007693391767563869,-0.9675648110503013,0.25247801662378017,"(0.001, 0.0, 0.0, 0.0, 0.001, 0.0, 0.0, 0.0, 0.001)",0.0,0.0,0.0,"(1e-05, 0.0, 0.0, 0.0, 1e-05, 0.0, 0.0, 0.0, 1e-05)",-0.033496093750000004,0.14833984375,9.8095703125,"(0.01, 0.0, 0.0, 0.0, 0.01, 0.0, 0.0, 0.0, 0.01)"
2025/07/11/14:09:31.766016,35,1752242971,765565112,imu_link,0.003741189968099825,-0.007693571117448413,-0.9675769129517238,0.25243163427727394,"(0.001, 0.0, 0.0, 0.0, 0.001, 0.0, 0.0, 0.0, 0.001)",0.0,0.0,0.0,"(1e-05, 0.0, 0.0, 0.0, 1e-05, 0.0, 0.0, 0.0, 1e-05)",-0.033496093750000004,0.14833984375,9.8095703125,"(0.01, 0.0, 0.0, 0.0, 0.01, 0.0, 0.0, 0.0, 0.01)"
2025/07/11/14:09:31.777583,36,1752242971,777268523,imu_link,0.003741189968099825,-0.007693571117448413,-0.9675769129517238,0.25243163427727394,"(0.001, 0.0, 0.0, 0.0, 0.001, 0.0, 0.0, 0.0, 0.001)",0.0,0.0,0.0,"(1e-05, 0.0, 0.0, 0.0, 1e-05, 0.0, 0.0, 0.0, 1e-05)",-0.033496093750000004,0.14833984375,9.8095703125,"(0.01, 0.0, 0.0, 0.0, 0.01, 0.0, 0.0, 0.0, 0.01)"
2025/07/11/14:09:31.827758,37,1752242971,827454405,imu_link,0.003741189968099825,-0.007693571117448413,-0.9675769129517238,0.25243163427727394,"(0.001, 0.0, 0.0, 0.0, 0.001, 0.0, 0.0, 0.0, 0.001)",0.0,0.0,0.0,"(1e-05, 0.0, 0.0, 0.0, 1e-05, 0.0, 0.0, 0.0, 1e-05)",-0.033496093750000004,0.14833984375,9.8095703125,"(0.01, 0.0, 0.0, 0.0, 0.01, 0.0, 0.0, 0.0, 0.01)"
2025/07/11/14:09:31.866199,38,1752242971,865512857,imu_link,0.003741189968099825,-0.007693571117448413,-0.9675769129517238,0.25243163427727394,"(0.001, 0.0, 0.0, 0.0, 0.001, 0.0, 0.0, 0.0, 0.001)",0.0,0.0,0.0,"(1e-05, 0.0, 0.0, 0.0, 1e-05, 0.0, 0.0, 0.0, 1e-05)",-0.033496093750000004,0.14833984375,9.8095703125,"(0.01, 0.0, 0.0, 0.0, 0.01, 0.0, 0.0, 0.0, 0.01)"
2025/07/11/14:09:31.878076,39,1752242971,877751157,imu_link,0.003741189968099825,-0.007693571117448413,-0.9675769129517238,0.25243163427727394,"(0.001, 0.0, 0.0, 0.0, 0.001, 0.0, 0.0, 0.0, 0.001)",0.0,0.0,0.0,"(1e-05, 0.0, 0.0, 0.0, 1e-05, 0.0, 0.0, 0.0, 1e-05)",-0.033496093750000004,0.14833984375,9.8095703125,"(0.01, 0.0, 0.0, 0.0, 0.01, 0.0, 0.0, 0.0, 0.01)"
2025/07/11/14:09:31.928272,40,1752242971,927954767,imu_link,0.003741189968099825,-0.007693571117448413,-0.9675769129517238,0.25243163427727394,"(0.001, 0.0, 0.0, 0.0, 0.001, 0.0, 0.0, 0.0, 0.001)",0.0,0.0,0.0,"(1e-05, 0.0, 0.0, 0.0, 1e-05, 0.0, 0.0, 0.0, 1e-05)",-0.033496093750000004,0.14833984375,9.8095703125,"(0.01, 0.0, 0.0, 0.0, 0.01, 0.0, 0.0, 0.0, 0.01)"
2025/07/11/14:09:31.966334,41,1752242971,965607841,imu_link,0.003787572259682504,-0.007681469013215197,-0.9675769355406916,0.2524312245738649,"(0.001, 0.0, 0.0, 0.0, 0.001, 0.0, 0.0, 0.0, 0.001)",0.0,0.0,0.0,"(1e-05, 0.0, 0.0, 0.0, 1e-05, 0.0, 0.0, 0.0, 1e-05)",-0.033496093750000004,0.14833984375,9.8095703125,"(0.01, 0.0, 0.0, 0.0, 0.01, 0.0, 0.0, 0.0, 0.01)"
2025/07/11/14:09:31.978576,42,1752242971,978245897,imu_link,0.003787572259682504,-0.007681469013215197,-0.9675769355406916,0.2524312245738649,"(0.001, 0.0, 0.0, 0.0, 0.001, 0.0, 0.0, 0.0, 0.001)",0.0,0.0,0.0,"(1e-05, 0.0, 0.0, 0.0, 1e-05, 0.0, 0.0, 0.0, 1e-05)",-0.028710937500000002,0.14833984375,9.8095703125,"(0.01, 0.0, 0.0, 0.0, 0.01, 0.0, 0.0, 0.0, 0.01)"
2025/07/11/14:09:32.028813,43,1752242972,28467903,imu_link,0.003787572259682504,-0.007681469013215197,-0.9675769355406916,0.2524312245738649,"(0.001, 0.0, 0.0, 0.0, 0.001, 0.0, 0.0, 0.0, 0.001)",0.0,0.0,0.0,"(1e-05, 0.0, 0.0, 0.0, 1e-05, 0.0, 0.0, 0.0, 1e-05)",-0.033496093750000004,0.14833984375,9.8095703125,"(0.01, 0.0, 0.0, 0.0, 0.01, 0.0, 0.0, 0.0, 0.01)"
2025/07/11/14:09:32.066339,44,1752242972,65623352,imu_link,0.003787572259682504,-0.007681469013215197,-0.9675769355406916,0.2524312245738649,"(0.001, 0.0, 0.0, 0.0, 0.001, 0.0, 0.0, 0.0, 0.001)",0.0,0.0,0.0,"(1e-05, 0.0, 0.0, 0.0, 1e-05, 0.0, 0.0, 0.0, 1e-05)",-0.033496093750000004,0.14833984375,9.8095703125,"(0.01, 0.0, 0.0, 0.0, 0.01, 0.0, 0.0, 0.0, 0.01)"
2025/07/11/14:09:32.079381,45,1752242972,78944075,imu_link,0.003787572259682504,-0.007681469013215197,-0.9675769355406916,0.2524312245738649,"(0.001, 0.0, 0.0, 0.0, 0.001, 0.0, 0.0, 0.0, 0.001)",0.0,0.0,0.0,"(1e-05, 0.0, 0.0, 0.0, 1e-05, 0.0, 0.0, 0.0, 1e-05)",-0.033496093750000004,0.14833984375,9.8095703125,"(0.01, 0.0, 0.0, 0.0, 0.01, 0.0, 0.0, 0.0, 0.01)"
2025/07/11/14:09:32.129425,46,1752242972,128970063,imu_link,0.003787572259682504,-0.007681469013215197,-0.9675769355406916,0.2524312245738649,"(0.001, 0.0, 0.0, 0.0, 0.001, 0.0, 0.0, 0.0, 0.001)",0.0,0.0,0.0,"(1e-05, 0.0, 0.0, 0.0, 1e-05, 0.0, 0.0, 0.0, 1e-05)",-0.033496093750000004,0.153125,9.8095703125,"(0.01, 0.0, 0.0, 0.0, 0.01, 0.0, 0.0, 0.0, 0.01)"
2025/07/11/14:09:32.166272,47,1752242972,165562994,imu_link,0.003787572259682504,-0.007681469013215197,-0.9675769355406916,0.2524312245738649,"(0.001, 0.0, 0.0, 0.0, 0.001, 0.0, 0.0, 0.0, 0.001)",0.0,0.0,0.0,"(1e-05, 0.0, 0.0, 0.0, 1e-05, 0.0, 0.0, 0.0, 1e-05)",-0.033496093750000004,0.153125,9.8095703125,"(0.01, 0.0, 0.0, 0.0, 0.01, 0.0, 0.0, 0.0, 0.01)"
2025/07/11/14:09:32.180134,48,1752242972,179618389,imu_link,0.003787572259682504,-0.007681469013215197,-0.9675769355406916,0.2524312245738649,"(0.001, 0.0, 0.0, 0.0, 0.001, 0.0, 0.0, 0.0, 0.001)",0.0,0.0,0.0,"(1e-05, 0.0, 0.0, 0.0, 1e-05, 0.0, 0.0, 0.0, 1e-05)",-0.033496093750000004,0.14833984375,9.8095703125,"(0.01, 0.0, 0.0, 0.0, 0.01, 0.0, 0.0, 0.0, 0.01)"
2025/07/11/14:09:32.230024,49,1752242972,229563531,imu_link,0.003787572259682504,-0.007681469013215197,-0.9675769355406916,0.2524312245738649,"(0.001, 0.0, 0.0, 0.0, 0.001, 0.0, 0.0, 0.0, 0.001)",0.0,0.0,0.0,"(1e-05, 0.0, 0.0, 0.0, 1e-05, 0.0, 0.0, 0.0, 1e-05)",-0.02392578125,0.153125,9.80478515625,"(0.01, 0.0, 0.0, 0.0, 0.01, 0.0, 0.0, 0.0, 0.01)"
2025/07/11/14:09:32.266261,50,1752242972,265578711,imu_link,0.0037872040295280776,-0.007681650568857449,-0.9675890351990343,0.25238484164620234,"(0.001, 0.0, 0.0, 0.0, 0.001, 0.0, 0.0, 0.0, 0.001)",0.0,0.0,0.0,"(1e-05, 0.0, 0.0, 0.0, 1e-05, 0.0, 0.0, 0.0, 1e-05)",-0.02392578125,0.153125,9.80478515625,"(0.01, 0.0, 0.0, 0.0, 0.01, 0.0, 0.0, 0.0, 0.01)"
2025/07/11/14:09:32.280387,51,1752242972,279946973,imu_link,0.0037872040295280776,-0.007681650568857449,-0.9675890351990343,0.25238484164620234,"(0.001, 0.0, 0.0, 0.0, 0.001, 0.0, 0.0, 0.0, 0.001)",0.0,0.0,0.0,"(1e-05, 0.0, 0.0, 0.0, 1e-05, 0.0, 0.0, 0.0, 1e-05)",-0.033496093750000004,0.153125,9.8095703125,"(0.01, 0.0, 0.0, 0.0, 0.01, 0.0, 0.0, 0.0, 0.01)"
2025/07/11/14:09:32.330436,52,1752242972,329981950,imu_link,0.0037408211578613447,-0.007693750449653544,-0.9675890126297064,0.2523852513506938,"(0.001, 0.0, 0.0, 0.0, 0.001, 0.0, 0.0, 0.0, 0.001)",0.0,0.0,0.0,"(1e-05, 0.0, 0.0, 0.0, 1e-05, 0.0, 0.0, 0.0, 1e-05)",-0.033496093750000004,0.14833984375,9.814355468750001,"(0.01, 0.0, 0.0, 0.0, 0.01, 0.0, 0.0, 0.0, 0.01)"
2025/07/11/14:09:32.366404,53,1752242972,365618390,imu_link,0.0037408211578613447,-0.007693750449653544,-0.9675890126297064,0.2523852513506938,"(0.001, 0.0, 0.0, 0.0, 0.001, 0.0, 0.0, 0.0, 0.001)",0.0,0.0,0.0,"(1e-05, 0.0, 0.0, 0.0, 1e-05, 0.0, 0.0, 0.0, 1e-05)",-0.033496093750000004,0.14833984375,9.814355468750001,"(0.01, 0.0, 0.0, 0.0, 0.01, 0.0, 0.0, 0.0, 0.01)"
2025/07/11/14:09:32.380892,54,1752242972,380464467,imu_link,0.0037408211578613447,-0.007693750449653544,-0.9675890126297064,0.2523852513506938,"(0.001, 0.0, 0.0, 0.0, 0.001, 0.0, 0.0, 0.0, 0.001)",0.0,0.0,0.0,"(1e-05, 0.0, 0.0, 0.0, 1e-05, 0.0, 0.0, 0.0, 1e-05)",-0.03828125,0.13876953125000002,9.814355468750001,"(0.01, 0.0, 0.0, 0.0, 0.01, 0.0, 0.0, 0.0, 0.01)"
2025/07/11/14:09:32.430724,55,1752242972,430441389,imu_link,0.0037408211578613447,-0.007693750449653544,-0.9675890126297064,0.2523852513506938,"(0.001, 0.0, 0.0, 0.0, 0.001, 0.0, 0.0, 0.0, 0.001)",0.0,0.0,0.0,"(1e-05, 0.0, 0.0, 0.0, 1e-05, 0.0, 0.0, 0.0, 1e-05)",-0.019140625,0.153125,9.795214843750001,"(0.01, 0.0, 0.0, 0.0, 0.01, 0.0, 0.0, 0.0, 0.01)"
2025/07/11/14:09:32.466414,56,1752242972,465613964,imu_link,0.0037872040295280776,-0.007681650568857449,-0.9675890351990343,0.25238484164620234,"(0.001, 0.0, 0.0, 0.0, 0.001, 0.0, 0.0, 0.0, 0.001)",0.0,0.0,0.0,"(1e-05, 0.0, 0.0, 0.0, 1e-05, 0.0, 0.0, 0.0, 1e-05)",-0.019140625,0.153125,9.795214843750001,"(0.01, 0.0, 0.0, 0.0, 0.01, 0.0, 0.0, 0.0, 0.01)"
2025/07/11/14:09:32.481332,57,1752242972,480796078,imu_link,0.0037872040295280776,-0.007681650568857449,-0.9675890351990343,0.25238484164620234,"(0.001, 0.0, 0.0, 0.0, 0.001, 0.0, 0.0, 0.0, 0.001)",0.0,0.0,0.0,"(1e-05, 0.0, 0.0, 0.0, 1e-05, 0.0, 0.0, 0.0, 1e-05)",-0.028710937500000002,0.14833984375,9.814355468750001,"(0.01, 0.0, 0.0, 0.0, 0.01, 0.0, 0.0, 0.0, 0.01)"
2025/07/11/14:09:32.531407,58,1752242972,531023743,imu_link,0.0037408211578613447,-0.007693750449653544,-0.9675890126297064,0.2523852513506938,"(0.001, 0.0, 0.0, 0.0, 0.001, 0.0, 0.0, 0.0, 0.001)",0.0,0.0,0.0,"(1e-05, 0.0, 0.0, 0.0, 1e-05, 0.0, 0.0, 0.0, 1e-05)",-0.03828125,0.153125,9.8095703125,"(0.01, 0.0, 0.0, 0.0, 0.01, 0.0, 0.0, 0.0, 0.01)"
2025/07/11/14:09:32.566315,59,1752242972,565559548,imu_link,0.0037408211578613447,-0.007693750449653544,-0.9675890126297064,0.2523852513506938,"(0.001, 0.0, 0.0, 0.0, 0.001, 0.0, 0.0, 0.0, 0.001)",0.0,0.0,0.0,"(1e-05, 0.0, 0.0, 0.0, 1e-05, 0.0, 0.0, 0.0, 1e-05)",-0.03828125,0.153125,9.8095703125,"(0.01, 0.0, 0.0, 0.0, 0.01, 0.0, 0.0, 0.0, 0.01)"
2025/07/11/14:09:32.581778,60,1752242972,581282344,imu_link,0.0037408211578613447,-0.007693750449653544,-0.9675890126297064,0.2523852513506938,"(0.001, 0.0, 0.0, 0.0, 0.001, 0.0, 0.0, 0.0, 0.001)",0.0,0.0,0.0,"(1e-05, 0.0, 0.0, 0.0, 1e-05, 0.0, 0.0, 0.0, 1e-05)",-0.033496093750000004,0.153125,9.80478515625,"(0.01, 0.0, 0.0, 0.0, 0.01, 0.0, 0.0, 0.0, 0.01)"
2025/07/11/14:09:32.631827,61,1752242972,631481447,imu_link,0.0037408211578613447,-0.007693750449653544,-0.9675890126297064,0.2523852513506938,"(0.001, 0.0, 0.0, 0.0, 0.001, 0.0, 0.0, 0.0, 0.001)",0.0,0.0,0.0,"(1e-05, 0.0, 0.0, 0.0, 1e-05, 0.0, 0.0, 0.0, 1e-05)",-0.033496093750000004,0.1435546875,9.814355468750001,"(0.01, 0.0, 0.0, 0.0, 0.01, 0.0, 0.0, 0.0, 0.01)"
2025/07/11/14:09:32.666226,62,1752242972,665731914,imu_link,0.0037408211578613447,-0.007693750449653544,-0.9675890126297064,0.2523852513506938,"(0.001, 0.0, 0.0, 0.0, 0.001, 0.0, 0.0, 0.0, 0.001)",0.0,0.0,0.0,"(1e-05, 0.0, 0.0, 0.0, 1e-05, 0.0, 0.0, 0.0, 1e-05)",-0.033496093750000004,0.1435546875,9.814355468750001,"(0.01, 0.0, 0.0, 0.0, 0.01, 0.0, 0.0, 0.0, 0.01)"
2025/07/11/14:09:32.682573,63,1752242972,682090498,imu_link,0.0037408211578613447,-0.007693750449653544,-0.9675890126297064,0.2523852513506938,"(0.001, 0.0, 0.0, 0.0, 0.001, 0.0, 0.0, 0.0, 0.001)",0.0,0.0,0.0,"(1e-05, 0.0, 0.0, 0.0, 1e-05, 0.0, 0.0, 0.0, 1e-05)",-0.028710937500000002,0.14833984375,9.80478515625,"(0.01, 0.0, 0.0, 0.0, 0.01, 0.0, 0.0, 0.0, 0.01)"
2025/07/11/14:09:32.732465,64,1752242972,732042295,imu_link,0.0037408211578613447,-0.007693750449653544,-0.9675890126297064,0.2523852513506938,"(0.001, 0.0, 0.0, 0.0, 0.001, 0.0, 0.0, 0.0, 0.001)",0.0,0.0,0.0,"(1e-05, 0.0, 0.0, 0.0, 1e-05, 0.0, 0.0, 0.0, 1e-05)",-0.033496093750000004,0.14833984375,9.8095703125,"(0.01, 0.0, 0.0, 0.0, 0.01, 0.0, 0.0, 0.0, 0.01)"
2025/07/11/14:09:32.766249,65,1752242972,765727869,imu_link,0.0037408211578613447,-0.007693750449653544,-0.9675890126297064,0.2523852513506938,"(0.001, 0.0, 0.0, 0.0, 0.001, 0.0, 0.0, 0.0, 0.001)",0.0,0.0,0.0,"(1e-05, 0.0, 0.0, 0.0, 1e-05, 0.0, 0.0, 0.0, 1e-05)",-0.033496093750000004,0.14833984375,9.8095703125,"(0.01, 0.0, 0.0, 0.0, 0.01, 0.0, 0.0, 0.0, 0.01)"
2025/07/11/14:09:32.783103,66,1752242972,782573907,imu_link,0.0037408211578613447,-0.007693750449653544,-0.9675890126297064,0.2523852513506938,"(0.001, 0.0, 0.0, 0.0, 0.001, 0.0, 0.0, 0.0, 0.001)",0.0,0.0,0.0,"(1e-05, 0.0, 0.0, 0.0, 1e-05, 0.0, 0.0, 0.0, 1e-05)",-0.033496093750000004,0.14833984375,9.8095703125,"(0.01, 0.0, 0.0, 0.0, 0.01, 0.0, 0.0, 0.0, 0.01)"
2025/07/11/14:09:32.832878,67,1752242972,832515011,imu_link,0.0037408211578613447,-0.007693750449653544,-0.9675890126297064,0.2523852513506938,"(0.001, 0.0, 0.0, 0.0, 0.001, 0.0, 0.0, 0.0, 0.001)",0.0,0.0,0.0,"(1e-05, 0.0, 0.0, 0.0, 1e-05, 0.0, 0.0, 0.0, 1e-05)",-0.028710937500000002,0.153125,9.8095703125,"(0.01, 0.0, 0.0, 0.0, 0.01, 0.0, 0.0, 0.0, 0.01)"
2025/07/11/14:09:32.866206,68,1752242972,865711916,imu_link,0.0037408211578613447,-0.007693750449653544,-0.9675890126297064,0.2523852513506938,"(0.001, 0.0, 0.0, 0.0, 0.001, 0.0, 0.0, 0.0, 0.001)",0.0,0.0,0.0,"(1e-05, 0.0, 0.0, 0.0, 1e-05, 0.0, 0.0, 0.0, 1e-05)",-0.028710937500000002,0.153125,9.8095703125,"(0.01, 0.0, 0.0, 0.0, 0.01, 0.0, 0.0, 0.0, 0.01)"
2025/07/11/14:09:32.883567,69,1752242972,883101934,imu_link,0.0037408211578613447,-0.007693750449653544,-0.9675890126297064,0.2523852513506938,"(0.001, 0.0, 0.0, 0.0, 0.001, 0.0, 0.0, 0.0, 0.001)",0.0,0.0,0.0,"(1e-05, 0.0, 0.0, 0.0, 1e-05, 0.0, 0.0, 0.0, 1e-05)",-0.033496093750000004,0.14833984375,9.8095703125,"(0.01, 0.0, 0.0, 0.0, 0.01, 0.0, 0.0, 0.0, 0.01)"
2025/07/11/14:09:32.933547,70,1752242972,933095150,imu_link,0.003740452339026656,-0.00769392976417885,-0.9676011100842216,0.2523388678441456,"(0.001, 0.0, 0.0, 0.0, 0.001, 0.0, 0.0, 0.0, 0.001)",0.0,0.0,0.0,"(1e-05, 0.0, 0.0, 0.0, 1e-05, 0.0, 0.0, 0.0, 1e-05)",-0.028710937500000002,0.14833984375,9.8095703125,"(0.01, 0.0, 0.0, 0.0, 0.01, 0.0, 0.0, 0.0, 0.01)"
2025/07/11/14:09:32.966229,71,1752242972,965727763,imu_link,0.003740452339026656,-0.00769392976417885,-0.9676011100842216,0.2523388678441456,"(0.001, 0.0, 0.0, 0.0, 0.001, 0.0, 0.0, 0.0, 0.001)",0.0,0.0,0.0,"(1e-05, 0.0, 0.0, 0.0, 1e-05, 0.0, 0.0, 0.0, 1e-05)",-0.028710937500000002,0.14833984375,9.8095703125,"(0.01, 0.0, 0.0, 0.0, 0.01, 0.0, 0.0, 0.0, 0.01)"
2025/07/11/14:09:32.983782,72,1752242972,983284061,imu_link,0.003740452339026656,-0.00769392976417885,-0.9676011100842216,0.2523388678441456,"(0.001, 0.0, 0.0, 0.0, 0.001, 0.0, 0.0, 0.0, 0.001)",0.0,0.0,0.0,"(1e-05, 0.0, 0.0, 0.0, 1e-05, 0.0, 0.0, 0.0, 1e-05)",-0.033496093750000004,0.14833984375,9.8095703125,"(0.01, 0.0, 0.0, 0.0, 0.01, 0.0, 0.0, 0.0, 0.01)"
2025/07/11/14:09:33.033994,73,1752242973,33563011,imu_link,0.003728355991961521,-0.007647545958860028,-0.9676014777956063,0.2523390468599002,"(0.001, 0.0, 0.0, 0.0, 0.001, 0.0, 0.0, 0.0, 0.001)",0.0,0.0,0.0,"(1e-05, 0.0, 0.0, 0.0, 1e-05, 0.0, 0.0, 0.0, 1e-05)",-0.0478515625,0.153125,9.80478515625,"(0.01, 0.0, 0.0, 0.0, 0.01, 0.0, 0.0, 0.0, 0.01)"
2025/07/11/14:09:33.066092,74,1752242973,65496048,imu_link,0.003728355991961521,-0.007647545958860028,-0.9676014777956063,0.2523390468599002,"(0.001, 0.0, 0.0, 0.0, 0.001, 0.0, 0.0, 0.0, 0.001)",0.0,0.0,0.0,"(1e-05, 0.0, 0.0, 0.0, 1e-05, 0.0, 0.0, 0.0, 1e-05)",-0.0478515625,0.153125,9.80478515625,"(0.01, 0.0, 0.0, 0.0, 0.01, 0.0, 0.0, 0.0, 0.01)"
2025/07/11/14:09:33.084247,75,1752242973,83841738,imu_link,0.003728355991961521,-0.007647545958860028,-0.9676014777956063,0.2523390468599002,"(0.001, 0.0, 0.0, 0.0, 0.001, 0.0, 0.0, 0.0, 0.001)",0.0,0.0,0.0,"(1e-05, 0.0, 0.0, 0.0, 1e-05, 0.0, 0.0, 0.0, 1e-05)",-0.00478515625,0.14833984375,9.8287109375,"(0.01, 0.0, 0.0, 0.0, 0.01, 0.0, 0.0, 0.0, 0.01)"
2025/07/11/14:09:33.134409,76,1752242973,134087464,imu_link,0.003728355991961521,-0.007647545958860028,-0.9676014777956063,0.2523390468599002,"(0.001, 0.0, 0.0, 0.0, 0.001, 0.0, 0.0, 0.0, 0.001)",0.0,0.0,0.0,"(1e-05, 0.0, 0.0, 0.0, 1e-05, 0.0, 0.0, 0.0, 1e-05)",-0.04306640625,0.153125,9.78564453125,"(0.01, 0.0, 0.0, 0.0, 0.01, 0.0, 0.0, 0.0, 0.01)"
2025/07/11/14:09:33.165986,77,1752242973,165505667,imu_link,0.003728355991961521,-0.007647545958860028,-0.9676014777956063,0.2523390468599002,"(0.001, 0.0, 0.0, 0.0, 0.001, 0.0, 0.0, 0.0, 0.001)",0.0,0.0,0.0,"(1e-05, 0.0, 0.0, 0.0, 1e-05, 0.0, 0.0, 0.0, 1e-05)",-0.04306640625,0.153125,9.78564453125,"(0.01, 0.0, 0.0, 0.0, 0.01, 0.0, 0.0, 0.0, 0.01)"
2025/07/11/14:09:33.184595,78,1752242973,184256033,imu_link,0.003728355991961521,-0.007647545958860028,-0.9676014777956063,0.2523390468599002,"(0.001, 0.0, 0.0, 0.0, 0.001, 0.0, 0.0, 0.0, 0.001)",0.0,0.0,0.0,"(1e-05, 0.0, 0.0, 0.0, 1e-05, 0.0, 0.0, 0.0, 1e-05)",-0.014355468750000001,0.153125,9.814355468750001,"(0.01, 0.0, 0.0, 0.0, 0.01, 0.0, 0.0, 0.0, 0.01)"
2025/07/11/14:09:33.234814,79,1752242973,234482677,imu_link,0.003728355991961521,-0.007647545958860028,-0.9676014777956063,0.2523390468599002,"(0.001, 0.0, 0.0, 0.0, 0.001, 0.0, 0.0, 0.0, 0.001)",0.0,0.0,0.0,"(1e-05, 0.0, 0.0, 0.0, 1e-05, 0.0, 0.0, 0.0, 1e-05)",-0.0478515625,0.14833984375,9.8095703125,"(0.01, 0.0, 0.0, 0.0, 0.01, 0.0, 0.0, 0.0, 0.01)"
2025/07/11/14:09:33.266041,80,1752242973,265513471,imu_link,0.003728355991961521,-0.007647545958860028,-0.9676014777956063,0.2523390468599002,"(0.001, 0.0, 0.0, 0.0, 0.001, 0.0, 0.0, 0.0, 0.001)",0.0,0.0,0.0,"(1e-05, 0.0, 0.0, 0.0, 1e-05, 0.0, 0.0, 0.0, 1e-05)",-0.0478515625,0.14833984375,9.8095703125,"(0.01, 0.0, 0.0, 0.0, 0.01, 0.0, 0.0, 0.0, 0.01)"
2025/07/11/14:09:33.285043,81,1752242973,284719995,imu_link,0.003728355991961521,-0.007647545958860028,-0.9676014777956063,0.2523390468599002,"(0.001, 0.0, 0.0, 0.0, 0.001, 0.0, 0.0, 0.0, 0.001)",0.0,0.0,0.0,"(1e-05, 0.0, 0.0, 0.0, 1e-05, 0.0, 0.0, 0.0, 1e-05)",-0.033496093750000004,0.1435546875,9.814355468750001,"(0.01, 0.0, 0.0, 0.0, 0.01, 0.0, 0.0, 0.0, 0.01)"
2025/07/11/14:09:33.335489,82,1752242973,335071380,imu_link,0.003728355991961521,-0.007647545958860028,-0.9676014777956063,0.2523390468599002,"(0.001, 0.0, 0.0, 0.0, 0.001, 0.0, 0.0, 0.0, 0.001)",0.0,0.0,0.0,"(1e-05, 0.0, 0.0, 0.0, 1e-05, 0.0, 0.0, 0.0, 1e-05)",-0.019140625,0.153125,9.8,"(0.01, 0.0, 0.0, 0.0, 0.01, 0.0, 0.0, 0.0, 0.01)"
2025/07/11/14:09:33.366059,83,1752242973,365511354,imu_link,0.003728355991961521,-0.007647545958860028,-0.9676014777956063,0.2523390468599002,"(0.001, 0.0, 0.0, 0.0, 0.001, 0.0, 0.0, 0.0, 0.001)",0.0,0.0,0.0,"(1e-05, 0.0, 0.0, 0.0, 1e-05, 0.0, 0.0, 0.0, 1e-05)",-0.019140625,0.153125,9.8,"(0.01, 0.0, 0.0, 0.0, 0.01, 0.0, 0.0, 0.0, 0.01)"
2025/07/11/14:09:33.385743,84,1752242973,385430210,imu_link,0.003728355991961521,-0.007647545958860028,-0.9676014777956063,0.2523390468599002,"(0.001, 0.0, 0.0, 0.0, 0.001, 0.0, 0.0, 0.0, 0.001)",0.0,0.0,0.0,"(1e-05, 0.0, 0.0, 0.0, 1e-05, 0.0, 0.0, 0.0, 1e-05)",-0.028710937500000002,0.1435546875,9.814355468750001,"(0.01, 0.0, 0.0, 0.0, 0.01, 0.0, 0.0, 0.0, 0.01)"
2025/07/11/14:09:33.436027,85,1752242973,435578506,imu_link,0.003728355991961521,-0.007647545958860028,-0.9676014777956063,0.2523390468599002,"(0.001, 0.0, 0.0, 0.0, 0.001, 0.0, 0.0, 0.0, 0.001)",0.0,0.0,0.0,"(1e-05, 0.0, 0.0, 0.0, 1e-05, 0.0, 0.0, 0.0, 1e-05)",-0.03828125,0.14833984375,9.80478515625,"(0.01, 0.0, 0.0, 0.0, 0.01, 0.0, 0.0, 0.0, 0.01)"
2025/07/11/14:09:33.465932,86,1752242973,465476557,imu_link,0.003728355991961521,-0.007647545958860028,-0.9676014777956063,0.2523390468599002,"(0.001, 0.0, 0.0, 0.0, 0.001, 0.0, 0.0, 0.0, 0.001)",0.0,0.0,0.0,"(1e-05, 0.0, 0.0, 0.0, 1e-05, 0.0, 0.0, 0.0, 1e-05)",-0.03828125,0.14833984375,9.80478515625,"(0.01, 0.0, 0.0, 0.0, 0.01, 0.0, 0.0, 0.0, 0.01)"
2025/07/11/14:09:33.486615,87,1752242973,486101201,imu_link,0.003728355991961521,-0.007647545958860028,-0.9676014777956063,0.2523390468599002,"(0.001, 0.0, 0.0, 0.0, 0.001, 0.0, 0.0, 0.0, 0.001)",0.0,0.0,0.0,"(1e-05, 0.0, 0.0, 0.0, 1e-05, 0.0, 0.0, 0.0, 1e-05)",-0.03828125,0.14833984375,9.814355468750001,"(0.01, 0.0, 0.0, 0.0, 0.01, 0.0, 0.0, 0.0, 0.01)"
2025/07/11/14:09:33.536620,88,1752242973,536173531,imu_link,0.003728355991961521,-0.007647545958860028,-0.9676014777956063,0.2523390468599002,"(0.001, 0.0, 0.0, 0.0, 0.001, 0.0, 0.0, 0.0, 0.001)",0.0,0.0,0.0,"(1e-05, 0.0, 0.0, 0.0, 1e-05, 0.0, 0.0, 0.0, 1e-05)",-0.028710937500000002,0.14833984375,9.80478515625,"(0.01, 0.0, 0.0, 0.0, 0.01, 0.0, 0.0, 0.0, 0.01)"
2025/07/11/14:09:33.566255,89,1752242973,565718749,imu_link,0.003728355991961521,-0.007647545958860028,-0.9676014777956063,0.2523390468599002,"(0.001, 0.0, 0.0, 0.0, 0.001, 0.0, 0.0, 0.0, 0.001)",0.0,0.0,0.0,"(1e-05, 0.0, 0.0, 0.0, 1e-05, 0.0, 0.0, 0.0, 1e-05)",-0.028710937500000002,0.14833984375,9.80478515625,"(0.01, 0.0, 0.0, 0.0, 0.01, 0.0, 0.0, 0.0, 0.01)"
2025/07/11/14:09:33.587188,90,1752242973,586696087,imu_link,0.003728355991961521,-0.007647545958860028,-0.9676014777956063,0.2523390468599002,"(0.001, 0.0, 0.0, 0.0, 0.001, 0.0, 0.0, 0.0, 0.001)",0.0,0.0,0.0,"(1e-05, 0.0, 0.0, 0.0, 1e-05, 0.0, 0.0, 0.0, 1e-05)",-0.02392578125,0.153125,9.8095703125,"(0.01, 0.0, 0.0, 0.0, 0.01, 0.0, 0.0, 0.0, 0.01)"
2025/07/11/14:09:33.637275,91,1752242973,636852049,imu_link,0.003728355991961521,-0.007647545958860028,-0.9676014777956063,0.2523390468599002,"(0.001, 0.0, 0.0, 0.0, 0.001, 0.0, 0.0, 0.0, 0.001)",0.0,0.0,0.0,"(1e-05, 0.0, 0.0, 0.0, 1e-05, 0.0, 0.0, 0.0, 1e-05)",-0.033496093750000004,0.14833984375,9.8095703125,"(0.01, 0.0, 0.0, 0.0, 0.01, 0.0, 0.0, 0.0, 0.01)"
2025/07/11/14:09:33.666324,92,1752242973,665722185,imu_link,0.003728355991961521,-0.007647545958860028,-0.9676014777956063,0.2523390468599002,"(0.001, 0.0, 0.0, 0.0, 0.001, 0.0, 0.0, 0.0, 0.001)",0.0,0.0,0.0,"(1e-05, 0.0, 0.0, 0.0, 1e-05, 0.0, 0.0, 0.0, 1e-05)",-0.033496093750000004,0.14833984375,9.8095703125,"(0.01, 0.0, 0.0, 0.0, 0.01, 0.0, 0.0, 0.0, 0.01)"
2025/07/11/14:09:33.687682,93,1752242973,687130355,imu_link,0.003728355991961521,-0.007647545958860028,-0.9676014777956063,0.2523390468599002,"(0.001, 0.0, 0.0, 0.0, 0.001, 0.0, 0.0, 0.0, 0.001)",0.0,0.0,0.0,"(1e-05, 0.0, 0.0, 0.0, 1e-05, 0.0, 0.0, 0.0, 1e-05)",-0.033496093750000004,0.1435546875,9.8095703125,"(0.01, 0.0, 0.0, 0.0, 0.01, 0.0, 0.0, 0.0, 0.01)"
2025/07/11/14:09:33.737630,94,1752242973,737138547,imu_link,0.003728355991961521,-0.007647545958860028,-0.9676014777956063,0.2523390468599002,"(0.001, 0.0, 0.0, 0.0, 0.001, 0.0, 0.0, 0.0, 0.001)",0.0,0.0,0.0,"(1e-05, 0.0, 0.0, 0.0, 1e-05, 0.0, 0.0, 0.0, 1e-05)",-0.03828125,0.14833984375,9.8095703125,"(0.01, 0.0, 0.0, 0.0, 0.01, 0.0, 0.0, 0.0, 0.01)"
2025/07/11/14:09:33.766353,95,1752242973,765850431,imu_link,0.003728355991961521,-0.007647545958860028,-0.9676014777956063,0.2523390468599002,"(0.001, 0.0, 0.0, 0.0, 0.001, 0.0, 0.0, 0.0, 0.001)",0.0,0.0,0.0,"(1e-05, 0.0, 0.0, 0.0, 1e-05, 0.0, 0.0, 0.0, 1e-05)",-0.03828125,0.14833984375,9.8095703125,"(0.01, 0.0, 0.0, 0.0, 0.01, 0.0, 0.0, 0.0, 0.01)"
2025/07/11/14:09:33.788186,96,1752242973,787636088,imu_link,0.003728355991961521,-0.007647545958860028,-0.9676014777956063,0.2523390468599002,"(0.001, 0.0, 0.0, 0.0, 0.001, 0.0, 0.0, 0.0, 0.001)",0.0,0.0,0.0,"(1e-05, 0.0, 0.0, 0.0, 1e-05, 0.0, 0.0, 0.0, 1e-05)",-0.028710937500000002,0.14833984375,9.8095703125,"(0.01, 0.0, 0.0, 0.0, 0.01, 0.0, 0.0, 0.0, 0.01)"
2025/07/11/14:09:33.837991,97,1752242973,837582185,imu_link,0.003728355991961521,-0.007647545958860028,-0.9676014777956063,0.2523390468599002,"(0.001, 0.0, 0.0, 0.0, 0.001, 0.0, 0.0, 0.0, 0.001)",0.0,0.0,0.0,"(1e-05, 0.0, 0.0, 0.0, 1e-05, 0.0, 0.0, 0.0, 1e-05)",-0.028710937500000002,0.14833984375,9.8095703125,"(0.01, 0.0, 0.0, 0.0, 0.01, 0.0, 0.0, 0.0, 0.01)"
2025/07/11/14:09:33.866208,98,1752242973,865723172,imu_link,0.003728355991961521,-0.007647545958860028,-0.9676014777956063,0.2523390468599002,"(0.001, 0.0, 0.0, 0.0, 0.001, 0.0, 0.0, 0.0, 0.001)",0.0,0.0,0.0,"(1e-05, 0.0, 0.0, 0.0, 1e-05, 0.0, 0.0, 0.0, 1e-05)",-0.028710937500000002,0.14833984375,9.8095703125,"(0.01, 0.0, 0.0, 0.0, 0.01, 0.0, 0.0, 0.0, 0.01)"
2025/07/11/14:09:33.888732,99,1752242973,888180615,imu_link,0.003728355991961521,-0.007647545958860028,-0.9676014777956063,0.2523390468599002,"(0.001, 0.0, 0.0, 0.0, 0.001, 0.0, 0.0, 0.0, 0.001)",0.0,0.0,0.0,"(1e-05, 0.0, 0.0, 0.0, 1e-05, 0.0, 0.0, 0.0, 1e-05)",-0.033496093750000004,0.14833984375,9.80478515625,"(0.01, 0.0, 0.0, 0.0, 0.01, 0.0, 0.0, 0.0, 0.01)"
2025/07/11/14:09:33.938615,100,1752242973,938192815,imu_link,0.003728355991961521,-0.007647545958860028,-0.9676014777956063,0.2523390468599002,"(0.001, 0.0, 0.0, 0.0, 0.001, 0.0, 0.0, 0.0, 0.001)",0.0,0.0,0.0,"(1e-05, 0.0, 0.0, 0.0, 1e-05, 0.0, 0.0, 0.0, 1e-05)",-0.033496093750000004,0.14833984375,9.8095703125,"(0.01, 0.0, 0.0, 0.0, 0.01, 0.0, 0.0, 0.0, 0.01)"
2025/07/11/14:09:33.965965,101,1752242973,965524049,imu_link,0.0037279893880411536,-0.007647724675897026,-0.9676135730352072,0.2522926627558637,"(0.001, 0.0, 0.0, 0.0, 0.001, 0.0, 0.0, 0.0, 0.001)",0.0,0.0,0.0,"(1e-05, 0.0, 0.0, 0.0, 1e-05, 0.0, 0.0, 0.0, 1e-05)",-0.033496093750000004,0.14833984375,9.8095703125,"(0.01, 0.0, 0.0, 0.0, 0.01, 0.0, 0.0, 0.0, 0.01)"
2025/07/11/14:09:33.989180,102,1752242973,988637020,imu_link,0.0037279893880411536,-0.007647724675897026,-0.9676135730352072,0.2522926627558637,"(0.001, 0.0, 0.0, 0.0, 0.001, 0.0, 0.0, 0.0, 0.001)",0.0,0.0,0.0,"(1e-05, 0.0, 0.0, 0.0, 1e-05, 0.0, 0.0, 0.0, 1e-05)",-0.028710937500000002,0.14833984375,9.8095703125,"(0.01, 0.0, 0.0, 0.0, 0.01, 0.0, 0.0, 0.0, 0.01)"
2025/07/11/14:09:34.039067,103,1752242974,38650168,imu_link,0.0037279893880411536,-0.007647724675897026,-0.9676135730352072,0.2522926627558637,"(0.001, 0.0, 0.0, 0.0, 0.001, 0.0, 0.0, 0.0, 0.001)",0.0,0.0,0.0,"(1e-05, 0.0, 0.0, 0.0, 1e-05, 0.0, 0.0, 0.0, 1e-05)",-0.028710937500000002,0.14833984375,9.80478515625,"(0.01, 0.0, 0.0, 0.0, 0.01, 0.0, 0.0, 0.0, 0.01)"
2025/07/11/14:09:34.065894,104,1752242974,65489692,imu_link,0.0037279893880411536,-0.007647724675897026,-0.9676135730352072,0.2522926627558637,"(0.001, 0.0, 0.0, 0.0, 0.001, 0.0, 0.0, 0.0, 0.001)",0.0,0.0,0.0,"(1e-05, 0.0, 0.0, 0.0, 1e-05, 0.0, 0.0, 0.0, 1e-05)",-0.028710937500000002,0.14833984375,9.80478515625,"(0.01, 0.0, 0.0, 0.0, 0.01, 0.0, 0.0, 0.0, 0.01)"
2025/07/11/14:09:34.089393,105,1752242974,89019393,imu_link,0.0037279893880411536,-0.007647724675897026,-0.9676135730352072,0.2522926627558637,"(0.001, 0.0, 0.0, 0.0, 0.001, 0.0, 0.0, 0.0, 0.001)",0.0,0.0,0.0,"(1e-05, 0.0, 0.0, 0.0, 1e-05, 0.0, 0.0, 0.0, 1e-05)",-0.028710937500000002,0.14833984375,9.8095703125,"(0.01, 0.0, 0.0, 0.0, 0.01, 0.0, 0.0, 0.0, 0.01)"
2025/07/11/14:09:34.139562,106,1752242974,139141975,imu_link,0.0037279893880411536,-0.007647724675897026,-0.9676135730352072,0.2522926627558637,"(0.001, 0.0, 0.0, 0.0, 0.001, 0.0, 0.0, 0.0, 0.001)",0.0,0.0,0.0,"(1e-05, 0.0, 0.0, 0.0, 1e-05, 0.0, 0.0, 0.0, 1e-05)",-0.033496093750000004,0.14833984375,9.8095703125,"(0.01, 0.0, 0.0, 0.0, 0.01, 0.0, 0.0, 0.0, 0.01)"
2025/07/11/14:09:34.166247,107,1752242974,165720735,imu_link,0.0037279893880411536,-0.007647724675897026,-0.9676135730352072,0.2522926627558637,"(0.001, 0.0, 0.0, 0.0, 0.001, 0.0, 0.0, 0.0, 0.001)",0.0,0.0,0.0,"(1e-05, 0.0, 0.0, 0.0, 1e-05, 0.0, 0.0, 0.0, 1e-05)",-0.033496093750000004,0.14833984375,9.8095703125,"(0.01, 0.0, 0.0, 0.0, 0.01, 0.0, 0.0, 0.0, 0.01)"
2025/07/11/14:09:34.190283,108,1752242974,189734925,imu_link,0.0037279893880411536,-0.007647724675897026,-0.9676135730352072,0.2522926627558637,"(0.001, 0.0, 0.0, 0.0, 0.001, 0.0, 0.0, 0.0, 0.001)",0.0,0.0,0.0,"(1e-05, 0.0, 0.0, 0.0, 1e-05, 0.0, 0.0, 0.0, 1e-05)",-0.028710937500000002,0.14833984375,9.8095703125,"(0.01, 0.0, 0.0, 0.0, 0.01, 0.0, 0.0, 0.0, 0.01)"
2025/07/11/14:09:34.240219,109,1752242974,239735603,imu_link,0.0037279893880411536,-0.007647724675897026,-0.9676135730352072,0.2522926627558637,"(0.001, 0.0, 0.0, 0.0, 0.001, 0.0, 0.0, 0.0, 0.001)",0.0,0.0,0.0,"(1e-05, 0.0, 0.0, 0.0, 1e-05, 0.0, 0.0, 0.0, 1e-05)",-0.028710937500000002,0.14833984375,9.8095703125,"(0.01, 0.0, 0.0, 0.0, 0.01, 0.0, 0.0, 0.0, 0.01)"
2025/07/11/14:09:34.266342,110,1752242974,265719455,imu_link,0.0037279893880411536,-0.007647724675897026,-0.9676135730352072,0.2522926627558637,"(0.001, 0.0, 0.0, 0.0, 0.001, 0.0, 0.0, 0.0, 0.001)",0.0,0.0,0.0,"(1e-05, 0.0, 0.0, 0.0, 1e-05, 0.0, 0.0, 0.0, 1e-05)",-0.028710937500000002,0.14833984375,9.8095703125,"(0.01, 0.0, 0.0, 0.0, 0.01, 0.0, 0.0, 0.0, 0.01)"
2025/07/11/14:09:34.290753,111,1752242974,290291713,imu_link,0.0037279893880411536,-0.007647724675897026,-0.9676135730352072,0.2522926627558637,"(0.001, 0.0, 0.0, 0.0, 0.001, 0.0, 0.0, 0.0, 0.001)",0.0,0.0,0.0,"(1e-05, 0.0, 0.0, 0.0, 1e-05, 0.0, 0.0, 0.0, 1e-05)",-0.033496093750000004,0.14833984375,9.8095703125,"(0.01, 0.0, 0.0, 0.0, 0.01, 0.0, 0.0, 0.0, 0.01)"
2025/07/11/14:09:34.341094,112,1752242974,340682685,imu_link,0.0037279893880411536,-0.007647724675897026,-0.9676135730352072,0.2522926627558637,"(0.001, 0.0, 0.0, 0.0, 0.001, 0.0, 0.0, 0.0, 0.001)",0.0,0.0,0.0,"(1e-05, 0.0, 0.0, 0.0, 1e-05, 0.0, 0.0, 0.0, 1e-05)",-0.033496093750000004,0.14833984375,9.8095703125,"(0.01, 0.0, 0.0, 0.0, 0.01, 0.0, 0.0, 0.0, 0.01)"
2025/07/11/14:09:34.366353,113,1752242974,365717514,imu_link,0.0037279893880411536,-0.007647724675897026,-0.9676135730352072,0.2522926627558637,"(0.001, 0.0, 0.0, 0.0, 0.001, 0.0, 0.0, 0.0, 0.001)",0.0,0.0,0.0,"(1e-05, 0.0, 0.0, 0.0, 1e-05, 0.0, 0.0, 0.0, 1e-05)",-0.033496093750000004,0.14833984375,9.8095703125,"(0.01, 0.0, 0.0, 0.0, 0.01, 0.0, 0.0, 0.0, 0.01)"
2025/07/11/14:09:34.391195,114,1752242974,390759628,imu_link,0.0037279893880411536,-0.007647724675897026,-0.9676135730352072,0.2522926627558637,"(0.001, 0.0, 0.0, 0.0, 0.001, 0.0, 0.0, 0.0, 0.001)",0.0,0.0,0.0,"(1e-05, 0.0, 0.0, 0.0, 1e-05, 0.0, 0.0, 0.0, 1e-05)",-0.033496093750000004,0.14833984375,9.8095703125,"(0.01, 0.0, 0.0, 0.0, 0.01, 0.0, 0.0, 0.0, 0.01)"
2025/07/11/14:09:34.441396,115,1752242974,440993631,imu_link,0.0037279893880411536,-0.007647724675897026,-0.9676135730352072,0.2522926627558637,"(0.001, 0.0, 0.0, 0.0, 0.001, 0.0, 0.0, 0.0, 0.001)",0.0,0.0,0.0,"(1e-05, 0.0, 0.0, 0.0, 1e-05, 0.0, 0.0, 0.0, 1e-05)",-0.033496093750000004,0.14833984375,9.8095703125,"(0.01, 0.0, 0.0, 0.0, 0.01, 0.0, 0.0, 0.0, 0.01)"
2025/07/11/14:09:34.466010,116,1752242974,465531815,imu_link,0.0037279893880411536,-0.007647724675897026,-0.9676135730352072,0.2522926627558637,"(0.001, 0.0, 0.0, 0.0, 0.001, 0.0, 0.0, 0.0, 0.001)",0.0,0.0,0.0,"(1e-05, 0.0, 0.0, 0.0, 1e-05, 0.0, 0.0, 0.0, 1e-05)",-0.033496093750000004,0.14833984375,9.8095703125,"(0.01, 0.0, 0.0, 0.0, 0.01, 0.0, 0.0, 0.0, 0.01)"
2025/07/11/14:09:34.491272,117,1752242974,490962711,imu_link,0.0037279893880411536,-0.007647724675897026,-0.9676135730352072,0.2522926627558637,"(0.001, 0.0, 0.0, 0.0, 0.001, 0.0, 0.0, 0.0, 0.001)",0.0,0.0,0.0,"(1e-05, 0.0, 0.0, 0.0, 1e-05, 0.0, 0.0, 0.0, 1e-05)",-0.028710937500000002,0.1435546875,9.8095703125,"(0.01, 0.0, 0.0, 0.0, 0.01, 0.0, 0.0, 0.0, 0.01)"
2025/07/11/14:09:34.541745,118,1752242974,541350907,imu_link,0.0037279893880411536,-0.007647724675897026,-0.9676135730352072,0.2522926627558637,"(0.001, 0.0, 0.0, 0.0, 0.001, 0.0, 0.0, 0.0, 0.001)",0.0,0.0,0.0,"(1e-05, 0.0, 0.0, 0.0, 1e-05, 0.0, 0.0, 0.0, 1e-05)",-0.033496093750000004,0.1435546875,9.8095703125,"(0.01, 0.0, 0.0, 0.0, 0.01, 0.0, 0.0, 0.0, 0.01)"
2025/07/11/14:09:34.566288,119,1752242974,565721057,imu_link,0.0037279893880411536,-0.007647724675897026,-0.9676135730352072,0.2522926627558637,"(0.001, 0.0, 0.0, 0.0, 0.001, 0.0, 0.0, 0.0, 0.001)",0.0,0.0,0.0,"(1e-05, 0.0, 0.0, 0.0, 1e-05, 0.0, 0.0, 0.0, 1e-05)",-0.033496093750000004,0.1435546875,9.8095703125,"(0.01, 0.0, 0.0, 0.0, 0.01, 0.0, 0.0, 0.0, 0.01)"
2025/07/11/14:09:34.592273,120,1752242974,591810799,imu_link,0.0037279893880411536,-0.007647724675897026,-0.9676135730352072,0.2522926627558637,"(0.001, 0.0, 0.0, 0.0, 0.001, 0.0, 0.0, 0.0, 0.001)",0.0,0.0,0.0,"(1e-05, 0.0, 0.0, 0.0, 1e-05, 0.0, 0.0, 0.0, 1e-05)",-0.03828125,0.14833984375,9.8095703125,"(0.01, 0.0, 0.0, 0.0, 0.01, 0.0, 0.0, 0.0, 0.01)"
2025/07/11/14:09:34.642228,121,1752242974,641856554,imu_link,0.0037279893880411536,-0.007647724675897026,-0.9676135730352072,0.2522926627558637,"(0.001, 0.0, 0.0, 0.0, 0.001, 0.0, 0.0, 0.0, 0.001)",0.0,0.0,0.0,"(1e-05, 0.0, 0.0, 0.0, 1e-05, 0.0, 0.0, 0.0, 1e-05)",-0.033496093750000004,0.14833984375,9.8095703125,"(0.01, 0.0, 0.0, 0.0, 0.01, 0.0, 0.0, 0.0, 0.01)"
2025/07/11/14:09:34.666460,122,1752242974,665832271,imu_link,0.0037279893880411536,-0.007647724675897026,-0.9676135730352072,0.2522926627558637,"(0.001, 0.0, 0.0, 0.0, 0.001, 0.0, 0.0, 0.0, 0.001)",0.0,0.0,0.0,"(1e-05, 0.0, 0.0, 0.0, 1e-05, 0.0, 0.0, 0.0, 1e-05)",-0.033496093750000004,0.14833984375,9.8095703125,"(0.01, 0.0, 0.0, 0.0, 0.01, 0.0, 0.0, 0.0, 0.01)"
2025/07/11/14:09:34.692680,123,1752242974,692220919,imu_link,0.0037279893880411536,-0.007647724675897026,-0.9676135730352072,0.2522926627558637,"(0.001, 0.0, 0.0, 0.0, 0.001, 0.0, 0.0, 0.0, 0.001)",0.0,0.0,0.0,"(1e-05, 0.0, 0.0, 0.0, 1e-05, 0.0, 0.0, 0.0, 1e-05)",-0.028710937500000002,0.14833984375,9.8095703125,"(0.01, 0.0, 0.0, 0.0, 0.01, 0.0, 0.0, 0.0, 0.01)"
2025/07/11/14:09:34.742750,124,1752242974,742355778,imu_link,0.0037279893880411536,-0.007647724675897026,-0.9676135730352072,0.2522926627558637,"(0.001, 0.0, 0.0, 0.0, 0.001, 0.0, 0.0, 0.0, 0.001)",0.0,0.0,0.0,"(1e-05, 0.0, 0.0, 0.0, 1e-05, 0.0, 0.0, 0.0, 1e-05)",-0.033496093750000004,0.14833984375,9.8095703125,"(0.01, 0.0, 0.0, 0.0, 0.01, 0.0, 0.0, 0.0, 0.01)"
2025/07/11/14:09:34.766210,125,1752242974,765706983,imu_link,0.0037279893880411536,-0.007647724675897026,-0.9676135730352072,0.2522926627558637,"(0.001, 0.0, 0.0, 0.0, 0.001, 0.0, 0.0, 0.0, 0.001)",0.0,0.0,0.0,"(1e-05, 0.0, 0.0, 0.0, 1e-05, 0.0, 0.0, 0.0, 1e-05)",-0.033496093750000004,0.14833984375,9.8095703125,"(0.01, 0.0, 0.0, 0.0, 0.01, 0.0, 0.0, 0.0, 0.01)"
2025/07/11/14:09:34.793025,126,1752242974,792559194,imu_link,0.0037279893880411536,-0.007647724675897026,-0.9676135730352072,0.2522926627558637,"(0.001, 0.0, 0.0, 0.0, 0.001, 0.0, 0.0, 0.0, 0.001)",0.0,0.0,0.0,"(1e-05, 0.0, 0.0, 0.0, 1e-05, 0.0, 0.0, 0.0, 1e-05)",-0.028710937500000002,0.14833984375,9.8095703125,"(0.01, 0.0, 0.0, 0.0, 0.01, 0.0, 0.0, 0.0, 0.01)"
2025/07/11/14:09:34.843272,127,1752242974,842807709,imu_link,0.0037279893880411536,-0.007647724675897026,-0.9676135730352072,0.2522926627558637,"(0.001, 0.0, 0.0, 0.0, 0.001, 0.0, 0.0, 0.0, 0.001)",0.0,0.0,0.0,"(1e-05, 0.0, 0.0, 0.0, 1e-05, 0.0, 0.0, 0.0, 1e-05)",-0.03828125,0.14833984375,9.8095703125,"(0.01, 0.0, 0.0, 0.0, 0.01, 0.0, 0.0, 0.0, 0.01)"
2025/07/11/14:09:34.866212,128,1752242974,865721678,imu_link,0.0037279893880411536,-0.007647724675897026,-0.9676135730352072,0.2522926627558637,"(0.001, 0.0, 0.0, 0.0, 0.001, 0.0, 0.0, 0.0, 0.001)",0.0,0.0,0.0,"(1e-05, 0.0, 0.0, 0.0, 1e-05, 0.0, 0.0, 0.0, 1e-05)",-0.03828125,0.14833984375,9.8095703125,"(0.01, 0.0, 0.0, 0.0, 0.01, 0.0, 0.0, 0.0, 0.01)"
2025/07/11/14:09:34.893475,129,1752242974,893066145,imu_link,0.0037279893880411536,-0.007647724675897026,-0.9676135730352072,0.2522926627558637,"(0.001, 0.0, 0.0, 0.0, 0.001, 0.0, 0.0, 0.0, 0.001)",0.0,0.0,0.0,"(1e-05, 0.0, 0.0, 0.0, 1e-05, 0.0, 0.0, 0.0, 1e-05)",-0.028710937500000002,0.14833984375,9.8095703125,"(0.01, 0.0, 0.0, 0.0, 0.01, 0.0, 0.0, 0.0, 0.01)"
2025/07/11/14:09:34.943752,130,1752242974,943330563,imu_link,0.0037279893880411536,-0.007647724675897026,-0.9676135730352072,0.2522926627558637,"(0.001, 0.0, 0.0, 0.0, 0.001, 0.0, 0.0, 0.0, 0.001)",0.0,0.0,0.0,"(1e-05, 0.0, 0.0, 0.0, 1e-05, 0.0, 0.0, 0.0, 1e-05)",-0.033496093750000004,0.14833984375,9.8095703125,"(0.01, 0.0, 0.0, 0.0, 0.01, 0.0, 0.0, 0.0, 0.01)"
2025/07/11/14:09:34.966314,131,1752242974,965823331,imu_link,0.0037279893880411536,-0.007647724675897026,-0.9676135730352072,0.2522926627558637,"(0.001, 0.0, 0.0, 0.0, 0.001, 0.0, 0.0, 0.0, 0.001)",0.0,0.0,0.0,"(1e-05, 0.0, 0.0, 0.0, 1e-05, 0.0, 0.0, 0.0, 1e-05)",-0.033496093750000004,0.14833984375,9.8095703125,"(0.01, 0.0, 0.0, 0.0, 0.01, 0.0, 0.0, 0.0, 0.01)"
2025/07/11/14:09:34.993996,132,1752242974,993564887,imu_link,0.0037279893880411536,-0.007647724675897026,-0.9676135730352072,0.2522926627558637,"(0.001, 0.0, 0.0, 0.0, 0.001, 0.0, 0.0, 0.0, 0.001)",0.0,0.0,0.0,"(1e-05, 0.0, 0.0, 0.0, 1e-05, 0.0, 0.0, 0.0, 1e-05)",-0.033496093750000004,0.14833984375,9.8095703125,"(0.01, 0.0, 0.0, 0.0, 0.01, 0.0, 0.0, 0.0, 0.01)"
2025/07/11/14:09:35.044495,133,1752242975,44008046,imu_link,0.0037279893880411536,-0.007647724675897026,-0.9676135730352072,0.2522926627558637,"(0.001, 0.0, 0.0, 0.0, 0.001, 0.0, 0.0, 0.0, 0.001)",0.0,0.0,0.0,"(1e-05, 0.0, 0.0, 0.0, 1e-05, 0.0, 0.0, 0.0, 1e-05)",-0.033496093750000004,0.14833984375,9.8095703125,"(0.01, 0.0, 0.0, 0.0, 0.01, 0.0, 0.0, 0.0, 0.01)"
2025/07/11/14:09:35.066051,134,1752242975,65563103,imu_link,0.0037279893880411536,-0.007647724675897026,-0.9676135730352072,0.2522926627558637,"(0.001, 0.0, 0.0, 0.0, 0.001, 0.0, 0.0, 0.0, 0.001)",0.0,0.0,0.0,"(1e-05, 0.0, 0.0, 0.0, 1e-05, 0.0, 0.0, 0.0, 1e-05)",-0.033496093750000004,0.14833984375,9.8095703125,"(0.01, 0.0, 0.0, 0.0, 0.01, 0.0, 0.0, 0.0, 0.01)"
2025/07/11/14:09:35.094537,135,1752242975,94094843,imu_link,0.0037279893880411536,-0.007647724675897026,-0.9676135730352072,0.2522926627558637,"(0.001, 0.0, 0.0, 0.0, 0.001, 0.0, 0.0, 0.0, 0.001)",0.0,0.0,0.0,"(1e-05, 0.0, 0.0, 0.0, 1e-05, 0.0, 0.0, 0.0, 1e-05)",-0.028710937500000002,0.14833984375,9.8095703125,"(0.01, 0.0, 0.0, 0.0, 0.01, 0.0, 0.0, 0.0, 0.01)"
2025/07/11/14:09:35.144847,136,1752242975,144395302,imu_link,0.0037279893880411536,-0.007647724675897026,-0.9676135730352072,0.2522926627558637,"(0.001, 0.0, 0.0, 0.0, 0.001, 0.0, 0.0, 0.0, 0.001)",0.0,0.0,0.0,"(1e-05, 0.0, 0.0, 0.0, 1e-05, 0.0, 0.0, 0.0, 1e-05)",-0.033496093750000004,0.14833984375,9.8095703125,"(0.01, 0.0, 0.0, 0.0, 0.01, 0.0, 0.0, 0.0, 0.01)"
2025/07/11/14:09:35.166261,137,1752242975,165676888,imu_link,0.0037279893880411536,-0.007647724675897026,-0.9676135730352072,0.2522926627558637,"(0.001, 0.0, 0.0, 0.0, 0.001, 0.0, 0.0, 0.0, 0.001)",0.0,0.0,0.0,"(1e-05, 0.0, 0.0, 0.0, 1e-05, 0.0, 0.0, 0.0, 1e-05)",-0.033496093750000004,0.14833984375,9.8095703125,"(0.01, 0.0, 0.0, 0.0, 0.01, 0.0, 0.0, 0.0, 0.01)"
2025/07/11/14:09:35.195014,138,1752242975,194598661,imu_link,0.0037279893880411536,-0.007647724675897026,-0.9676135730352072,0.2522926627558637,"(0.001, 0.0, 0.0, 0.0, 0.001, 0.0, 0.0, 0.0, 0.001)",0.0,0.0,0.0,"(1e-05, 0.0, 0.0, 0.0, 1e-05, 0.0, 0.0, 0.0, 1e-05)",-0.033496093750000004,0.14833984375,9.8095703125,"(0.01, 0.0, 0.0, 0.0, 0.01, 0.0, 0.0, 0.0, 0.01)"
2025/07/11/14:09:35.245631,139,1752242975,245188015,imu_link,0.0037279893880411536,-0.007647724675897026,-0.9676135730352072,0.2522926627558637,"(0.001, 0.0, 0.0, 0.0, 0.001, 0.0, 0.0, 0.0, 0.001)",0.0,0.0,0.0,"(1e-05, 0.0, 0.0, 0.0, 1e-05, 0.0, 0.0, 0.0, 1e-05)",-0.033496093750000004,0.14833984375,9.80478515625,"(0.01, 0.0, 0.0, 0.0, 0.01, 0.0, 0.0, 0.0, 0.01)"
2025/07/11/14:09:35.266300,140,1752242975,265714307,imu_link,0.0037279893880411536,-0.007647724675897026,-0.9676135730352072,0.2522926627558637,"(0.001, 0.0, 0.0, 0.0, 0.001, 0.0, 0.0, 0.0, 0.001)",0.0,0.0,0.0,"(1e-05, 0.0, 0.0, 0.0, 1e-05, 0.0, 0.0, 0.0, 1e-05)",-0.033496093750000004,0.14833984375,9.80478515625,"(0.01, 0.0, 0.0, 0.0, 0.01, 0.0, 0.0, 0.0, 0.01)"
2025/07/11/14:09:35.295575,141,1752242975,295154121,imu_link,0.0037279893880411536,-0.007647724675897026,-0.9676135730352072,0.2522926627558637,"(0.001, 0.0, 0.0, 0.0, 0.001, 0.0, 0.0, 0.0, 0.001)",0.0,0.0,0.0,"(1e-05, 0.0, 0.0, 0.0, 1e-05, 0.0, 0.0, 0.0, 1e-05)",-0.033496093750000004,0.14833984375,9.8095703125,"(0.01, 0.0, 0.0, 0.0, 0.01, 0.0, 0.0, 0.0, 0.01)"
2025/07/11/14:09:35.345959,142,1752242975,345520984,imu_link,0.0037279893880411536,-0.007647724675897026,-0.9676135730352072,0.2522926627558637,"(0.001, 0.0, 0.0, 0.0, 0.001, 0.0, 0.0, 0.0, 0.001)",0.0,0.0,0.0,"(1e-05, 0.0, 0.0, 0.0, 1e-05, 0.0, 0.0, 0.0, 1e-05)",-0.033496093750000004,0.14833984375,9.814355468750001,"(0.01, 0.0, 0.0, 0.0, 0.01, 0.0, 0.0, 0.0, 0.01)"
2025/07/11/14:09:35.366424,143,1752242975,365770377,imu_link,0.0037279893880411536,-0.007647724675897026,-0.9676135730352072,0.2522926627558637,"(0.001, 0.0, 0.0, 0.0, 0.001, 0.0, 0.0, 0.0, 0.001)",0.0,0.0,0.0,"(1e-05, 0.0, 0.0, 0.0, 1e-05, 0.0, 0.0, 0.0, 1e-05)",-0.033496093750000004,0.14833984375,9.814355468750001,"(0.01, 0.0, 0.0, 0.0, 0.01, 0.0, 0.0, 0.0, 0.01)"
2025/07/11/14:09:35.396449,144,1752242975,396023060,imu_link,0.0037279893880411536,-0.007647724675897026,-0.9676135730352072,0.2522926627558637,"(0.001, 0.0, 0.0, 0.0, 0.001, 0.0, 0.0, 0.0, 0.001)",0.0,0.0,0.0,"(1e-05, 0.0, 0.0, 0.0, 1e-05, 0.0, 0.0, 0.0, 1e-05)",-0.028710937500000002,0.14833984375,9.8095703125,"(0.01, 0.0, 0.0, 0.0, 0.01, 0.0, 0.0, 0.0, 0.01)"
2025/07/11/14:09:35.446207,145,1752242975,445872583,imu_link,0.0037279893880411536,-0.007647724675897026,-0.9676135730352072,0.2522926627558637,"(0.001, 0.0, 0.0, 0.0, 0.001, 0.0, 0.0, 0.0, 0.001)",0.0,0.0,0.0,"(1e-05, 0.0, 0.0, 0.0, 1e-05, 0.0, 0.0, 0.0, 1e-05)",-0.033496093750000004,0.14833984375,9.8095703125,"(0.01, 0.0, 0.0, 0.0, 0.01, 0.0, 0.0, 0.0, 0.01)"
2025/07/11/14:09:35.466020,146,1752242975,465504611,imu_link,0.0037279893880411536,-0.007647724675897026,-0.9676135730352072,0.2522926627558637,"(0.001, 0.0, 0.0, 0.0, 0.001, 0.0, 0.0, 0.0, 0.001)",0.0,0.0,0.0,"(1e-05, 0.0, 0.0, 0.0, 1e-05, 0.0, 0.0, 0.0, 1e-05)",-0.033496093750000004,0.14833984375,9.8095703125,"(0.01, 0.0, 0.0, 0.0, 0.01, 0.0, 0.0, 0.0, 0.01)"
2025/07/11/14:09:35.496418,147,1752242975,496106589,imu_link,0.0037279893880411536,-0.007647724675897026,-0.9676135730352072,0.2522926627558637,"(0.001, 0.0, 0.0, 0.0, 0.001, 0.0, 0.0, 0.0, 0.001)",0.0,0.0,0.0,"(1e-05, 0.0, 0.0, 0.0, 1e-05, 0.0, 0.0, 0.0, 1e-05)",-0.033496093750000004,0.14833984375,9.8095703125,"(0.01, 0.0, 0.0, 0.0, 0.01, 0.0, 0.0, 0.0, 0.01)"
2025/07/11/14:09:35.546950,148,1752242975,546569158,imu_link,0.0037279893880411536,-0.007647724675897026,-0.9676135730352072,0.2522926627558637,"(0.001, 0.0, 0.0, 0.0, 0.001, 0.0, 0.0, 0.0, 0.001)",0.0,0.0,0.0,"(1e-05, 0.0, 0.0, 0.0, 1e-05, 0.0, 0.0, 0.0, 1e-05)",-0.033496093750000004,0.14833984375,9.8095703125,"(0.01, 0.0, 0.0, 0.0, 0.01, 0.0, 0.0, 0.0, 0.01)"
2025/07/11/14:09:35.565999,149,1752242975,565484125,imu_link,0.0037279893880411536,-0.007647724675897026,-0.9676135730352072,0.2522926627558637,"(0.001, 0.0, 0.0, 0.0, 0.001, 0.0, 0.0, 0.0, 0.001)",0.0,0.0,0.0,"(1e-05, 0.0, 0.0, 0.0, 1e-05, 0.0, 0.0, 0.0, 1e-05)",-0.033496093750000004,0.14833984375,9.8095703125,"(0.01, 0.0, 0.0, 0.0, 0.01, 0.0, 0.0, 0.0, 0.01)"
2025/07/11/14:09:35.596861,150,1752242975,596563595,imu_link,0.0037279893880411536,-0.007647724675897026,-0.9676135730352072,0.2522926627558637,"(0.001, 0.0, 0.0, 0.0, 0.001, 0.0, 0.0, 0.0, 0.001)",0.0,0.0,0.0,"(1e-05, 0.0, 0.0, 0.0, 1e-05, 0.0, 0.0, 0.0, 1e-05)",-0.028710937500000002,0.14833984375,9.8095703125,"(0.01, 0.0, 0.0, 0.0, 0.01, 0.0, 0.0, 0.0, 0.01)"
2025/07/11/14:09:35.646832,151,1752242975,646681580,imu_link,0.0037279893880411536,-0.007647724675897026,-0.9676135730352072,0.2522926627558637,"(0.001, 0.0, 0.0, 0.0, 0.001, 0.0, 0.0, 0.0, 0.001)",0.0,0.0,0.0,"(1e-05, 0.0, 0.0, 0.0, 1e-05, 0.0, 0.0, 0.0, 1e-05)",-0.033496093750000004,0.14833984375,9.8095703125,"(0.01, 0.0, 0.0, 0.0, 0.01, 0.0, 0.0, 0.0, 0.01)"
2025/07/11/14:09:35.665586,152,1752242975,665459120,imu_link,0.003715895255918979,-0.007601340273196075,-0.9676139385316489,0.25229284117423617,"(0.001, 0.0, 0.0, 0.0, 0.001, 0.0, 0.0, 0.0, 0.001)",0.0,0.0,0.0,"(1e-05, 0.0, 0.0, 0.0, 1e-05, 0.0, 0.0, 0.0, 1e-05)",-0.033496093750000004,0.14833984375,9.8095703125,"(0.01, 0.0, 0.0, 0.0, 0.01, 0.0, 0.0, 0.0, 0.01)"
2025/07/11/14:09:35.697198,153,1752242975,696996531,imu_link,0.003715895255918979,-0.007601340273196075,-0.9676139385316489,0.25229284117423617,"(0.001, 0.0, 0.0, 0.0, 0.001, 0.0, 0.0, 0.0, 0.001)",0.0,0.0,0.0,"(1e-05, 0.0, 0.0, 0.0, 1e-05, 0.0, 0.0, 0.0, 1e-05)",-0.033496093750000004,0.14833984375,9.8095703125,"(0.01, 0.0, 0.0, 0.0, 0.01, 0.0, 0.0, 0.0, 0.01)"
2025/07/11/14:09:35.747634,154,1752242975,747327877,imu_link,0.003715895255918979,-0.007601340273196075,-0.9676139385316489,0.25229284117423617,"(0.001, 0.0, 0.0, 0.0, 0.001, 0.0, 0.0, 0.0, 0.001)",0.0,0.0,0.0,"(1e-05, 0.0, 0.0, 0.0, 1e-05, 0.0, 0.0, 0.0, 1e-05)",-0.033496093750000004,0.14833984375,9.8095703125,"(0.01, 0.0, 0.0, 0.0, 0.01, 0.0, 0.0, 0.0, 0.01)"
2025/07/11/14:09:35.766002,155,1752242975,765565849,imu_link,0.003715895255918979,-0.007601340273196075,-0.9676139385316489,0.25229284117423617,"(0.001, 0.0, 0.0, 0.0, 0.001, 0.0, 0.0, 0.0, 0.001)",0.0,0.0,0.0,"(1e-05, 0.0, 0.0, 0.0, 1e-05, 0.0, 0.0, 0.0, 1e-05)",-0.033496093750000004,0.14833984375,9.8095703125,"(0.01, 0.0, 0.0, 0.0, 0.01, 0.0, 0.0, 0.0, 0.01)"
2025/07/11/14:09:35.798007,156,1752242975,797631653,imu_link,0.003715895255918979,-0.007601340273196075,-0.9676139385316489,0.25229284117423617,"(0.001, 0.0, 0.0, 0.0, 0.001, 0.0, 0.0, 0.0, 0.001)",0.0,0.0,0.0,"(1e-05, 0.0, 0.0, 0.0, 1e-05, 0.0, 0.0, 0.0, 1e-05)",-0.033496093750000004,0.14833984375,9.8095703125,"(0.01, 0.0, 0.0, 0.0, 0.01, 0.0, 0.0, 0.0, 0.01)"
2025/07/11/14:09:35.848164,157,1752242975,847838600,imu_link,0.003715895255918979,-0.007601340273196075,-0.9676139385316489,0.25229284117423617,"(0.001, 0.0, 0.0, 0.0, 0.001, 0.0, 0.0, 0.0, 0.001)",0.0,0.0,0.0,"(1e-05, 0.0, 0.0, 0.0, 1e-05, 0.0, 0.0, 0.0, 1e-05)",-0.033496093750000004,0.1435546875,9.8095703125,"(0.01, 0.0, 0.0, 0.0, 0.01, 0.0, 0.0, 0.0, 0.01)"
2025/07/11/14:09:35.865987,158,1752242975,865507742,imu_link,0.003715895255918979,-0.007601340273196075,-0.9676139385316489,0.25229284117423617,"(0.001, 0.0, 0.0, 0.0, 0.001, 0.0, 0.0, 0.0, 0.001)",0.0,0.0,0.0,"(1e-05, 0.0, 0.0, 0.0, 1e-05, 0.0, 0.0, 0.0, 1e-05)",-0.033496093750000004,0.1435546875,9.8095703125,"(0.01, 0.0, 0.0, 0.0, 0.01, 0.0, 0.0, 0.0, 0.01)"
2025/07/11/14:09:35.898559,159,1752242975,898255722,imu_link,0.003715895255918979,-0.007601340273196075,-0.9676139385316489,0.25229284117423617,"(0.001, 0.0, 0.0, 0.0, 0.001, 0.0, 0.0, 0.0, 0.001)",0.0,0.0,0.0,"(1e-05, 0.0, 0.0, 0.0, 1e-05, 0.0, 0.0, 0.0, 1e-05)",-0.033496093750000004,0.14833984375,9.8095703125,"(0.01, 0.0, 0.0, 0.0, 0.01, 0.0, 0.0, 0.0, 0.01)"
2025/07/11/14:09:35.948652,160,1752242975,948392447,imu_link,0.003715895255918979,-0.007601340273196075,-0.9676139385316489,0.25229284117423617,"(0.001, 0.0, 0.0, 0.0, 0.001, 0.0, 0.0, 0.0, 0.001)",0.0,0.0,0.0,"(1e-05, 0.0, 0.0, 0.0, 1e-05, 0.0, 0.0, 0.0, 1e-05)",-0.033496093750000004,0.14833984375,9.8095703125,"(0.01, 0.0, 0.0, 0.0, 0.01, 0.0, 0.0, 0.0, 0.01)"
2025/07/11/14:09:35.965961,161,1752242975,965463955,imu_link,0.003715895255918979,-0.007601340273196075,-0.9676139385316489,0.25229284117423617,"(0.001, 0.0, 0.0, 0.0, 0.001, 0.0, 0.0, 0.0, 0.001)",0.0,0.0,0.0,"(1e-05, 0.0, 0.0, 0.0, 1e-05, 0.0, 0.0, 0.0, 1e-05)",-0.033496093750000004,0.14833984375,9.8095703125,"(0.01, 0.0, 0.0, 0.0, 0.01, 0.0, 0.0, 0.0, 0.01)"
2025/07/11/14:09:35.999062,162,1752242975,998723552,imu_link,0.003715895255918979,-0.007601340273196075,-0.9676139385316489,0.25229284117423617,"(0.001, 0.0, 0.0, 0.0, 0.001, 0.0, 0.0, 0.0, 0.001)",0.0,0.0,0.0,"(1e-05, 0.0, 0.0, 0.0, 1e-05, 0.0, 0.0, 0.0, 1e-05)",-0.033496093750000004,0.14833984375,9.8095703125,"(0.01, 0.0, 0.0, 0.0, 0.01, 0.0, 0.0, 0.0, 0.01)"
2025/07/11/14:09:36.049196,163,1752242976,48899478,imu_link,0.003715895255918979,-0.007601340273196075,-0.9676139385316489,0.25229284117423617,"(0.001, 0.0, 0.0, 0.0, 0.001, 0.0, 0.0, 0.0, 0.001)",0.0,0.0,0.0,"(1e-05, 0.0, 0.0, 0.0, 1e-05, 0.0, 0.0, 0.0, 1e-05)",-0.028710937500000002,0.14833984375,9.8095703125,"(0.01, 0.0, 0.0, 0.0, 0.01, 0.0, 0.0, 0.0, 0.01)"
2025/07/11/14:09:36.066109,164,1752242976,65511678,imu_link,0.003715895255918979,-0.007601340273196075,-0.9676139385316489,0.25229284117423617,"(0.001, 0.0, 0.0, 0.0, 0.001, 0.0, 0.0, 0.0, 0.001)",0.0,0.0,0.0,"(1e-05, 0.0, 0.0, 0.0, 1e-05, 0.0, 0.0, 0.0, 1e-05)",-0.028710937500000002,0.14833984375,9.8095703125,"(0.01, 0.0, 0.0, 0.0, 0.01, 0.0, 0.0, 0.0, 0.01)"
2025/07/11/14:09:36.099491,165,1752242976,99181711,imu_link,0.003715895255918979,-0.007601340273196075,-0.9676139385316489,0.25229284117423617,"(0.001, 0.0, 0.0, 0.0, 0.001, 0.0, 0.0, 0.0, 0.001)",0.0,0.0,0.0,"(1e-05, 0.0, 0.0, 0.0, 1e-05, 0.0, 0.0, 0.0, 1e-05)",-0.033496093750000004,0.14833984375,9.80478515625,"(0.01, 0.0, 0.0, 0.0, 0.01, 0.0, 0.0, 0.0, 0.01)"
2025/07/11/14:09:36.149704,166,1752242976,149391537,imu_link,0.003715895255918979,-0.007601340273196075,-0.9676139385316489,0.25229284117423617,"(0.001, 0.0, 0.0, 0.0, 0.001, 0.0, 0.0, 0.0, 0.001)",0.0,0.0,0.0,"(1e-05, 0.0, 0.0, 0.0, 1e-05, 0.0, 0.0, 0.0, 1e-05)",-0.033496093750000004,0.1435546875,9.8095703125,"(0.01, 0.0, 0.0, 0.0, 0.01, 0.0, 0.0, 0.0, 0.01)"
2025/07/11/14:09:36.165684,167,1752242976,165458778,imu_link,0.003715895255918979,-0.007601340273196075,-0.9676139385316489,0.25229284117423617,"(0.001, 0.0, 0.0, 0.0, 0.001, 0.0, 0.0, 0.0, 0.001)",0.0,0.0,0.0,"(1e-05, 0.0, 0.0, 0.0, 1e-05, 0.0, 0.0, 0.0, 1e-05)",-0.033496093750000004,0.1435546875,9.8095703125,"(0.01, 0.0, 0.0, 0.0, 0.01, 0.0, 0.0, 0.0, 0.01)"
2025/07/11/14:09:36.199789,168,1752242976,199581981,imu_link,0.003715895255918979,-0.007601340273196075,-0.9676139385316489,0.25229284117423617,"(0.001, 0.0, 0.0, 0.0, 0.001, 0.0, 0.0, 0.0, 0.001)",0.0,0.0,0.0,"(1e-05, 0.0, 0.0, 0.0, 1e-05, 0.0, 0.0, 0.0, 1e-05)",-0.033496093750000004,0.14833984375,9.8095703125,"(0.01, 0.0, 0.0, 0.0, 0.01, 0.0, 0.0, 0.0, 0.01)"
2025/07/11/14:09:36.250355,169,1752242976,250001961,imu_link,0.003715895255918979,-0.007601340273196075,-0.9676139385316489,0.25229284117423617,"(0.001, 0.0, 0.0, 0.0, 0.001, 0.0, 0.0, 0.0, 0.001)",0.0,0.0,0.0,"(1e-05, 0.0, 0.0, 0.0, 1e-05, 0.0, 0.0, 0.0, 1e-05)",-0.033496093750000004,0.1435546875,9.80478515625,"(0.01, 0.0, 0.0, 0.0, 0.01, 0.0, 0.0, 0.0, 0.01)"
2025/07/11/14:09:36.265926,170,1752242976,265503239,imu_link,0.003715895255918979,-0.007601340273196075,-0.9676139385316489,0.25229284117423617,"(0.001, 0.0, 0.0, 0.0, 0.001, 0.0, 0.0, 0.0, 0.001)",0.0,0.0,0.0,"(1e-05, 0.0, 0.0, 0.0, 1e-05, 0.0, 0.0, 0.0, 1e-05)",-0.033496093750000004,0.1435546875,9.80478515625,"(0.01, 0.0, 0.0, 0.0, 0.01, 0.0, 0.0, 0.0, 0.01)"
2025/07/11/14:09:36.300763,171,1752242976,300302213,imu_link,0.003715895255918979,-0.007601340273196075,-0.9676139385316489,0.25229284117423617,"(0.001, 0.0, 0.0, 0.0, 0.001, 0.0, 0.0, 0.0, 0.001)",0.0,0.0,0.0,"(1e-05, 0.0, 0.0, 0.0, 1e-05, 0.0, 0.0, 0.0, 1e-05)",-0.033496093750000004,0.14833984375,9.8095703125,"(0.01, 0.0, 0.0, 0.0, 0.01, 0.0, 0.0, 0.0, 0.01)"
2025/07/11/14:09:36.350880,172,1752242976,350320174,imu_link,0.003715895255918979,-0.007601340273196075,-0.9676139385316489,0.25229284117423617,"(0.001, 0.0, 0.0, 0.0, 0.001, 0.0, 0.0, 0.0, 0.001)",0.0,0.0,0.0,"(1e-05, 0.0, 0.0, 0.0, 1e-05, 0.0, 0.0, 0.0, 1e-05)",-0.033496093750000004,0.14833984375,9.8095703125,"(0.01, 0.0, 0.0, 0.0, 0.01, 0.0, 0.0, 0.0, 0.01)"
2025/07/11/14:09:36.365588,173,1752242976,365461633,imu_link,0.003715895255918979,-0.007601340273196075,-0.9676139385316489,0.25229284117423617,"(0.001, 0.0, 0.0, 0.0, 0.001, 0.0, 0.0, 0.0, 0.001)",0.0,0.0,0.0,"(1e-05, 0.0, 0.0, 0.0, 1e-05, 0.0, 0.0, 0.0, 1e-05)",-0.033496093750000004,0.14833984375,9.8095703125,"(0.01, 0.0, 0.0, 0.0, 0.01, 0.0, 0.0, 0.0, 0.01)"
2025/07/11/14:09:36.400696,174,1752242976,400588216,imu_link,0.003715895255918979,-0.007601340273196075,-0.9676139385316489,0.25229284117423617,"(0.001, 0.0, 0.0, 0.0, 0.001, 0.0, 0.0, 0.0, 0.001)",0.0,0.0,0.0,"(1e-05, 0.0, 0.0, 0.0, 1e-05, 0.0, 0.0, 0.0, 1e-05)",-0.033496093750000004,0.14833984375,9.8095703125,"(0.01, 0.0, 0.0, 0.0, 0.01, 0.0, 0.0, 0.0, 0.01)"
2025/07/11/14:09:36.451912,175,1752242976,451450462,imu_link,0.003715895255918979,-0.007601340273196075,-0.9676139385316489,0.25229284117423617,"(0.001, 0.0, 0.0, 0.0, 0.001, 0.0, 0.0, 0.0, 0.001)",0.0,0.0,0.0,"(1e-05, 0.0, 0.0, 0.0, 1e-05, 0.0, 0.0, 0.0, 1e-05)",-0.033496093750000004,0.14833984375,9.8095703125,"(0.01, 0.0, 0.0, 0.0, 0.01, 0.0, 0.0, 0.0, 0.01)"
2025/07/11/14:09:36.466138,176,1752242976,465556313,imu_link,0.003715895255918979,-0.007601340273196075,-0.9676139385316489,0.25229284117423617,"(0.001, 0.0, 0.0, 0.0, 0.001, 0.0, 0.0, 0.0, 0.001)",0.0,0.0,0.0,"(1e-05, 0.0, 0.0, 0.0, 1e-05, 0.0, 0.0, 0.0, 1e-05)",-0.033496093750000004,0.14833984375,9.8095703125,"(0.01, 0.0, 0.0, 0.0, 0.01, 0.0, 0.0, 0.0, 0.01)"
2025/07/11/14:09:36.501938,177,1752242976,501517509,imu_link,0.003715895255918979,-0.007601340273196075,-0.9676139385316489,0.25229284117423617,"(0.001, 0.0, 0.0, 0.0, 0.001, 0.0, 0.0, 0.0, 0.001)",0.0,0.0,0.0,"(1e-05, 0.0, 0.0, 0.0, 1e-05, 0.0, 0.0, 0.0, 1e-05)",-0.033496093750000004,0.14833984375,9.80478515625,"(0.01, 0.0, 0.0, 0.0, 0.01, 0.0, 0.0, 0.0, 0.01)"
2025/07/11/14:09:36.551928,178,1752242976,551542966,imu_link,0.0037622793265010192,-0.0075892448372531845,-0.9676139599020614,0.2522924359145979,"(0.001, 0.0, 0.0, 0.0, 0.001, 0.0, 0.0, 0.0, 0.001)",0.0,0.0,0.0,"(1e-05, 0.0, 0.0, 0.0, 1e-05, 0.0, 0.0, 0.0, 1e-05)",-0.033496093750000004,0.14833984375,9.8095703125,"(0.01, 0.0, 0.0, 0.0, 0.01, 0.0, 0.0, 0.0, 0.01)"
2025/07/11/14:09:36.566005,179,1752242976,565509646,imu_link,0.0037622793265010192,-0.0075892448372531845,-0.9676139599020614,0.2522924359145979,"(0.001, 0.0, 0.0, 0.0, 0.001, 0.0, 0.0, 0.0, 0.001)",0.0,0.0,0.0,"(1e-05, 0.0, 0.0, 0.0, 1e-05, 0.0, 0.0, 0.0, 1e-05)",-0.033496093750000004,0.14833984375,9.8095703125,"(0.01, 0.0, 0.0, 0.0, 0.01, 0.0, 0.0, 0.0, 0.01)"
2025/07/11/14:09:36.602283,180,1752242976,601917729,imu_link,0.0037622793265010192,-0.0075892448372531845,-0.9676139599020614,0.2522924359145979,"(0.001, 0.0, 0.0, 0.0, 0.001, 0.0, 0.0, 0.0, 0.001)",0.0,0.0,0.0,"(1e-05, 0.0, 0.0, 0.0, 1e-05, 0.0, 0.0, 0.0, 1e-05)",-0.033496093750000004,0.14833984375,9.8095703125,"(0.01, 0.0, 0.0, 0.0, 0.01, 0.0, 0.0, 0.0, 0.01)"
2025/07/11/14:09:36.652450,181,1752242976,652078920,imu_link,0.0037622793265010192,-0.0075892448372531845,-0.9676139599020614,0.2522924359145979,"(0.001, 0.0, 0.0, 0.0, 0.001, 0.0, 0.0, 0.0, 0.001)",0.0,0.0,0.0,"(1e-05, 0.0, 0.0, 0.0, 1e-05, 0.0, 0.0, 0.0, 1e-05)",-0.028710937500000002,0.1435546875,9.8095703125,"(0.01, 0.0, 0.0, 0.0, 0.01, 0.0, 0.0, 0.0, 0.01)"
2025/07/11/14:09:36.665878,182,1752242976,665481720,imu_link,0.0037622793265010192,-0.0075892448372531845,-0.9676139599020614,0.2522924359145979,"(0.001, 0.0, 0.0, 0.0, 0.001, 0.0, 0.0, 0.0, 0.001)",0.0,0.0,0.0,"(1e-05, 0.0, 0.0, 0.0, 1e-05, 0.0, 0.0, 0.0, 1e-05)",-0.028710937500000002,0.1435546875,9.8095703125,"(0.01, 0.0, 0.0, 0.0, 0.01, 0.0, 0.0, 0.0, 0.01)"
2025/07/11/14:09:36.703048,183,1752242976,702658505,imu_link,0.0037622793265010192,-0.0075892448372531845,-0.9676139599020614,0.2522924359145979,"(0.001, 0.0, 0.0, 0.0, 0.001, 0.0, 0.0, 0.0, 0.001)",0.0,0.0,0.0,"(1e-05, 0.0, 0.0, 0.0, 1e-05, 0.0, 0.0, 0.0, 1e-05)",-0.033496093750000004,0.14833984375,9.8095703125,"(0.01, 0.0, 0.0, 0.0, 0.01, 0.0, 0.0, 0.0, 0.01)"
2025/07/11/14:09:36.752949,184,1752242976,752578304,imu_link,0.0037622793265010192,-0.0075892448372531845,-0.9676139599020614,0.2522924359145979,"(0.001, 0.0, 0.0, 0.0, 0.001, 0.0, 0.0, 0.0, 0.001)",0.0,0.0,0.0,"(1e-05, 0.0, 0.0, 0.0, 1e-05, 0.0, 0.0, 0.0, 1e-05)",-0.033496093750000004,0.14833984375,9.8095703125,"(0.01, 0.0, 0.0, 0.0, 0.01, 0.0, 0.0, 0.0, 0.01)"
2025/07/11/14:09:36.765974,185,1752242976,765500616,imu_link,0.0037622793265010192,-0.0075892448372531845,-0.9676139599020614,0.2522924359145979,"(0.001, 0.0, 0.0, 0.0, 0.001, 0.0, 0.0, 0.0, 0.001)",0.0,0.0,0.0,"(1e-05, 0.0, 0.0, 0.0, 1e-05, 0.0, 0.0, 0.0, 1e-05)",-0.033496093750000004,0.14833984375,9.8095703125,"(0.01, 0.0, 0.0, 0.0, 0.01, 0.0, 0.0, 0.0, 0.01)"
2025/07/11/14:09:36.803260,186,1752242976,802850776,imu_link,0.0037622793265010192,-0.0075892448372531845,-0.9676139599020614,0.2522924359145979,"(0.001, 0.0, 0.0, 0.0, 0.001, 0.0, 0.0, 0.0, 0.001)",0.0,0.0,0.0,"(1e-05, 0.0, 0.0, 0.0, 1e-05, 0.0, 0.0, 0.0, 1e-05)",-0.028710937500000002,0.14833984375,9.8095703125,"(0.01, 0.0, 0.0, 0.0, 0.01, 0.0, 0.0, 0.0, 0.01)"
2025/07/11/14:09:36.853596,187,1752242976,853209584,imu_link,0.0037622793265010192,-0.0075892448372531845,-0.9676139599020614,0.2522924359145979,"(0.001, 0.0, 0.0, 0.0, 0.001, 0.0, 0.0, 0.0, 0.001)",0.0,0.0,0.0,"(1e-05, 0.0, 0.0, 0.0, 1e-05, 0.0, 0.0, 0.0, 1e-05)",-0.033496093750000004,0.14833984375,9.80478515625,"(0.01, 0.0, 0.0, 0.0, 0.01, 0.0, 0.0, 0.0, 0.01)"
2025/07/11/14:09:36.865867,188,1752242976,865475426,imu_link,0.0037622793265010192,-0.0075892448372531845,-0.9676139599020614,0.2522924359145979,"(0.001, 0.0, 0.0, 0.0, 0.001, 0.0, 0.0, 0.0, 0.001)",0.0,0.0,0.0,"(1e-05, 0.0, 0.0, 0.0, 1e-05, 0.0, 0.0, 0.0, 1e-05)",-0.033496093750000004,0.14833984375,9.80478515625,"(0.01, 0.0, 0.0, 0.0, 0.01, 0.0, 0.0, 0.0, 0.01)"
2025/07/11/14:09:36.903926,189,1752242976,903508011,imu_link,0.0037622793265010192,-0.0075892448372531845,-0.9676139599020614,0.2522924359145979,"(0.001, 0.0, 0.0, 0.0, 0.001, 0.0, 0.0, 0.0, 0.001)",0.0,0.0,0.0,"(1e-05, 0.0, 0.0, 0.0, 1e-05, 0.0, 0.0, 0.0, 1e-05)",-0.06220703125,0.11962890625000001,9.82392578125,"(0.01, 0.0, 0.0, 0.0, 0.01, 0.0, 0.0, 0.0, 0.01)"
2025/07/11/14:09:36.954385,190,1752242976,953995538,imu_link,0.0037622793265010192,-0.0075892448372531845,-0.9676139599020614,0.2522924359145979,"(0.001, 0.0, 0.0, 0.0, 0.001, 0.0, 0.0, 0.0, 0.001)",0.0,0.0,0.0,"(1e-05, 0.0, 0.0, 0.0, 1e-05, 0.0, 0.0, 0.0, 1e-05)",-0.6747070312500001,-0.095703125,9.244921875000001,"(0.01, 0.0, 0.0, 0.0, 0.01, 0.0, 0.0, 0.0, 0.01)"
2025/07/11/14:09:36.965995,191,1752242976,965493800,imu_link,0.003820900857672516,-0.007424801927010438,-0.9675424692527242,0.25257047180009246,"(0.001, 0.0, 0.0, 0.0, 0.001, 0.0, 0.0, 0.0, 0.001)",-0.03728425462510851,0.02343581719292535,0.0692421871609158,"(1e-05, 0.0, 0.0, 0.0, 1e-05, 0.0, 0.0, 0.0, 1e-05)",-0.6747070312500001,-0.095703125,9.244921875000001,"(0.01, 0.0, 0.0, 0.0, 0.01, 0.0, 0.0, 0.0, 0.01)"
2025/07/11/14:09:37.004720,192,1752242977,4244266,imu_link,0.003820900857672516,-0.007424801927010438,-0.9675424692527242,0.25257047180009246,"(0.001, 0.0, 0.0, 0.0, 0.001, 0.0, 0.0, 0.0, 0.001)",-0.03728425462510851,0.02343581719292535,0.0692421871609158,"(1e-05, 0.0, 0.0, 0.0, 1e-05, 0.0, 0.0, 0.0, 1e-05)",2.6988281250000004,-1.8470703125,9.2353515625,"(0.01, 0.0, 0.0, 0.0, 0.01, 0.0, 0.0, 0.0, 0.01)"
2025/07/11/14:09:37.054791,193,1752242977,54384394,imu_link,0.004236063091086897,-0.006068245637689853,-0.9666238356384566,0.25609293730981153,"(0.001, 0.0, 0.0, 0.0, 0.001, 0.0, 0.0, 0.0, 0.001)",-0.09267800435384115,0.02343581719292535,0.018109495103624133,"(1e-05, 0.0, 0.0, 0.0, 1e-05, 0.0, 0.0, 0.0, 1e-05)",0.11962890625000001,-1.665234375,10.852734375,"(0.01, 0.0, 0.0, 0.0, 0.01, 0.0, 0.0, 0.0, 0.01)"
2025/07/11/14:09:37.065913,194,1752242977,65478983,imu_link,0.0038551785862511396,-0.003947473930610584,-0.9675246994401564,0.2527162658414976,"(0.001, 0.0, 0.0, 0.0, 0.001, 0.0, 0.0, 0.0, 0.001)",0.012783173014322916,-0.02663161044650608,-0.1704423068576389,"(1e-05, 0.0, 0.0, 0.0, 1e-05, 0.0, 0.0, 0.0, 1e-05)",0.11962890625000001,-1.665234375,10.852734375,"(0.01, 0.0, 0.0, 0.0, 0.01, 0.0, 0.0, 0.0, 0.01)"
2025/07/11/14:09:37.105268,195,1752242977,104661598,imu_link,0.0038551785862511396,-0.003947473930610584,-0.9675246994401564,0.2527162658414976,"(0.001, 0.0, 0.0, 0.0, 0.001, 0.0, 0.0, 0.0, 0.001)",0.012783173014322916,-0.02663161044650608,-0.1704423068576389,"(1e-05, 0.0, 0.0, 0.0, 1e-05, 0.0, 0.0, 0.0, 1e-05)",-0.8326171875,-0.23447265625000002,9.44111328125,"(0.01, 0.0, 0.0, 0.0, 0.01, 0.0, 0.0, 0.0, 0.01)"
2025/07/11/14:09:37.155175,196,1752242977,154782606,imu_link,0.0035535792552032937,-0.0036436838041768293,-0.9688455607212905,0.24761335810787855,"(0.001, 0.0, 0.0, 0.0, 0.001, 0.0, 0.0, 0.0, 0.001)",0.035153725789388024,0.004261057671440972,-0.20453076822916666,"(1e-05, 0.0, 0.0, 0.0, 1e-05, 0.0, 0.0, 0.0, 1e-05)",-0.4880859375,-0.48330078125000003,9.436328125000001,"(0.01, 0.0, 0.0, 0.0, 0.01, 0.0, 0.0, 0.0, 0.01)"
2025/07/11/14:09:37.165890,197,1752242977,165512166,imu_link,0.0033137112241354415,-0.002778449689734213,-0.9701174441011716,0.24259728808429548,"(0.001, 0.0, 0.0, 0.0, 0.001, 0.0, 0.0, 0.0, 0.001)",0.0,-0.002130528835720486,-0.2151834124077691,"(1e-05, 0.0, 0.0, 0.0, 1e-05, 0.0, 0.0, 0.0, 1e-05)",-0.4880859375,-0.48330078125000003,9.436328125000001,"(0.01, 0.0, 0.0, 0.0, 0.01, 0.0, 0.0, 0.0, 0.01)"
2025/07/11/14:09:37.205595,198,1752242977,205162522,imu_link,0.0033137112241354415,-0.002778449689734213,-0.9701174441011716,0.24259728808429548,"(0.001, 0.0, 0.0, 0.0, 0.001, 0.0, 0.0, 0.0, 0.001)",0.0,-0.002130528835720486,-0.2151834124077691,"(1e-05, 0.0, 0.0, 0.0, 1e-05, 0.0, 0.0, 0.0, 1e-05)",-0.07177734375,-0.7225585937500001,10.3359375,"(0.01, 0.0, 0.0, 0.0, 0.01, 0.0, 0.0, 0.0, 0.01)"
2025/07/11/14:09:37.255777,199,1752242977,255433202,imu_link,0.003151615143633072,-0.0017978155599800614,-0.9715785263513428,0.23668967513212766,"(0.001, 0.0, 0.0, 0.0, 0.001, 0.0, 0.0, 0.0, 0.001)",0.019174759521484376,-0.011717908596462675,-0.27590348422580296,"(1e-05, 0.0, 0.0, 0.0, 1e-05, 0.0, 0.0, 0.0, 1e-05)",0.07177734375,-0.5550781250000001,10.077539062500001,"(0.01, 0.0, 0.0, 0.0, 0.01, 0.0, 0.0, 0.0, 0.01)"
2025/07/11/14:09:37.265879,200,1752242977,265503638,imu_link,0.002721279556969187,-0.0025597349973538897,-0.9733099268645486,0.2294642208738502,"(0.001, 0.0, 0.0, 0.0, 0.001, 0.0, 0.0, 0.0, 0.001)",0.09587379760742189,-0.04048004787868924,-0.3014698302544488,"(1e-05, 0.0, 0.0, 0.0, 1e-05, 0.0, 0.0, 0.0, 1e-05)",0.07177734375,-0.5550781250000001,10.077539062500001,"(0.01, 0.0, 0.0, 0.0, 0.01, 0.0, 0.0, 0.0, 0.01)"
2025/07/11/14:09:37.305989,201,1752242977,305613588,imu_link,0.002721279556969187,-0.0025597349973538897,-0.9733099268645486,0.2294642208738502,"(0.001, 0.0, 0.0, 0.0, 0.001, 0.0, 0.0, 0.0, 0.001)",0.09587379760742189,-0.04048004787868924,-0.3014698302544488,"(1e-05, 0.0, 0.0, 0.0, 1e-05, 0.0, 0.0, 0.0, 1e-05)",0.6412109375,0.32539062500000004,9.455468750000001,"(0.01, 0.0, 0.0, 0.0, 0.01, 0.0, 0.0, 0.0, 0.01)"
2025/07/11/14:09:37.356205,202,1752242977,355824169,imu_link,0.0015989394734117696,-0.004207913447802696,-0.9749521606085206,0.22236911067356815,"(0.001, 0.0, 0.0, 0.0, 0.001, 0.0, 0.0, 0.0, 0.001)",0.06391586507161459,-0.05965480740017361,-0.28655612840440536,"(1e-05, 0.0, 0.0, 0.0, 1e-05, 0.0, 0.0, 0.0, 1e-05)",0.41152343750000003,0.39716796875000004,9.292773437500001,"(0.01, 0.0, 0.0, 0.0, 0.01, 0.0, 0.0, 0.0, 0.01)"
2025/07/11/14:09:37.365868,203,1752242977,365477773,imu_link,0.0018707684696034762,-0.004250714174004126,-0.9764945731092498,0.21549194960027668,"(0.001, 0.0, 0.0, 0.0, 0.001, 0.0, 0.0, 0.0, 0.001)",-0.02450108161078559,0.051132692057291665,-0.27377295539008245,"(1e-05, 0.0, 0.0, 0.0, 1e-05, 0.0, 0.0, 0.0, 1e-05)",0.41152343750000003,0.39716796875000004,9.292773437500001,"(0.01, 0.0, 0.0, 0.0, 0.01, 0.0, 0.0, 0.0, 0.01)"
2025/07/11/14:09:37.406483,204,1752242977,406073402,imu_link,0.0018707684696034762,-0.004250714174004126,-0.9764945731092498,0.21549194960027668,"(0.001, 0.0, 0.0, 0.0, 0.001, 0.0, 0.0, 0.0, 0.001)",-0.02450108161078559,0.051132692057291665,-0.27377295539008245,"(1e-05, 0.0, 0.0, 0.0, 1e-05, 0.0, 0.0, 0.0, 1e-05)",-0.13398437500000002,0.09091796875000001,10.053613281250001,"(0.01, 0.0, 0.0, 0.0, 0.01, 0.0, 0.0, 0.0, 0.01)"
2025/07/11/14:09:37.456768,205,1752242977,456362543,imu_link,0.0025659911431907996,-0.003520219210425406,-0.9779106326595408,0.20897803300246665,"(0.001, 0.0, 0.0, 0.0, 0.001, 0.0, 0.0, 0.0, 0.001)",-0.02663161044650608,0.007456850925021701,-0.27057716213650174,"(1e-05, 0.0, 0.0, 0.0, 1e-05, 0.0, 0.0, 0.0, 1e-05)",-0.13398437500000002,0.11962890625000001,10.16845703125,"(0.01, 0.0, 0.0, 0.0, 0.01, 0.0, 0.0, 0.0, 0.01)"
2025/07/11/14:09:37.465914,206,1752242977,465493087,imu_link,0.0027494906430294034,-0.003592434485745825,-0.9792905494787792,0.2024093733432821,"(0.001, 0.0, 0.0, 0.0, 0.001, 0.0, 0.0, 0.0, 0.001)",0.022370552775065104,0.02769687486436632,-0.28016454189724393,"(1e-05, 0.0, 0.0, 0.0, 1e-05, 0.0, 0.0, 0.0, 1e-05)",-0.13398437500000002,0.11962890625000001,10.16845703125,"(0.01, 0.0, 0.0, 0.0, 0.01, 0.0, 0.0, 0.0, 0.01)"
2025/07/11/14:09:37.506993,207,1752242977,506592575,imu_link,0.0027494906430294034,-0.003592434485745825,-0.9792905494787792,0.2024093733432821,"(0.001, 0.0, 0.0, 0.0, 0.001, 0.0, 0.0, 0.0, 0.001)",0.022370552775065104,0.02769687486436632,-0.28016454189724393,"(1e-05, 0.0, 0.0, 0.0, 1e-05, 0.0, 0.0, 0.0, 1e-05)",-0.16748046875,0.39716796875000004,9.622949218750001,"(0.01, 0.0, 0.0, 0.0, 0.01, 0.0, 0.0, 0.0, 0.01)"
2025/07/11/14:09:37.557213,208,1752242977,556826897,imu_link,0.0030909752751310184,-0.004222570487741702,-0.980661509102599,0.19564156085795684,"(0.001, 0.0, 0.0, 0.0, 0.001, 0.0, 0.0, 0.0, 0.001)",0.022370552775065104,0.003195793253580729,-0.28975192165798613,"(1e-05, 0.0, 0.0, 0.0, 1e-05, 0.0, 0.0, 0.0, 1e-05)",0.15791015625000002,0.03828125,9.6373046875,"(0.01, 0.0, 0.0, 0.0, 0.01, 0.0, 0.0, 0.0, 0.01)"
2025/07/11/14:09:37.565924,209,1752242977,565499191,imu_link,0.003144617844511146,-0.004423347110745054,-0.9820058416995222,0.18877254103010502,"(0.001, 0.0, 0.0, 0.0, 0.001, 0.0, 0.0, 0.0, 0.001)",-0.02663161044650608,-0.03621899020724827,-0.2940129793294271,"(1e-05, 0.0, 0.0, 0.0, 1e-05, 0.0, 0.0, 0.0, 1e-05)",0.15791015625000002,0.03828125,9.6373046875,"(0.01, 0.0, 0.0, 0.0, 0.01, 0.0, 0.0, 0.0, 0.01)"
2025/07/11/14:09:37.607522,210,1752242977,607101045,imu_link,0.003144617844511146,-0.004423347110745054,-0.9820058416995222,0.18877254103010502,"(0.001, 0.0, 0.0, 0.0, 0.001, 0.0, 0.0, 0.0, 0.001)",-0.02663161044650608,-0.03621899020724827,-0.2940129793294271,"(1e-05, 0.0, 0.0, 0.0, 1e-05, 0.0, 0.0, 0.0, 1e-05)",0.08134765625000001,0.24404296875,9.85263671875,"(0.01, 0.0, 0.0, 0.0, 0.01, 0.0, 0.0, 0.0, 0.01)"
2025/07/11/14:09:37.657798,211,1752242977,657433870,imu_link,0.003329966907920043,-0.004308808376131907,-0.9833814160378793,0.1814699316198292,"(0.001, 0.0, 0.0, 0.0, 0.001, 0.0, 0.0, 0.0, 0.001)",-0.02024002393934462,0.017044230685763887,-0.3131877388509115,"(1e-05, 0.0, 0.0, 0.0, 1e-05, 0.0, 0.0, 0.0, 1e-05)",0.2201171875,-0.22968750000000002,9.80478515625,"(0.01, 0.0, 0.0, 0.0, 0.01, 0.0, 0.0, 0.0, 0.01)"
2025/07/11/14:09:37.665921,212,1752242977,665487266,imu_link,0.003817715236918622,-0.0037076582608662114,-0.9847952124865622,0.17363774873033025,"(0.001, 0.0, 0.0, 0.0, 0.001, 0.0, 0.0, 0.0, 0.001)",-0.02024002393934462,0.03089266811794705,-0.3344930272081163,"(1e-05, 0.0, 0.0, 0.0, 1e-05, 0.0, 0.0, 0.0, 1e-05)",0.2201171875,-0.22968750000000002,9.80478515625,"(0.01, 0.0, 0.0, 0.0, 0.01, 0.0, 0.0, 0.0, 0.01)"
2025/07/11/14:09:37.708027,213,1752242977,707641674,imu_link,0.003817715236918622,-0.0037076582608662114,-0.9847952124865622,0.17363774873033025,"(0.001, 0.0, 0.0, 0.0, 0.001, 0.0, 0.0, 0.0, 0.001)",-0.02024002393934462,0.03089266811794705,-0.3344930272081163,"(1e-05, 0.0, 0.0, 0.0, 1e-05, 0.0, 0.0, 0.0, 1e-05)",0.11962890625000001,0.06220703125,9.80478515625,"(0.01, 0.0, 0.0, 0.0, 0.01, 0.0, 0.0, 0.0, 0.01)"
2025/07/11/14:09:37.758212,214,1752242977,757861705,imu_link,0.004084359795704089,-0.003496515492950255,-0.9862803698916719,0.1649912856814371,"(0.001, 0.0, 0.0, 0.0, 0.001, 0.0, 0.0, 0.0, 0.001)",-0.007456850925021701,0.009587379760742188,-0.35047199347602,"(1e-05, 0.0, 0.0, 0.0, 1e-05, 0.0, 0.0, 0.0, 1e-05)",-0.6316406250000001,0.92353515625,9.508105468750001,"(0.01, 0.0, 0.0, 0.0, 0.01, 0.0, 0.0, 0.0, 0.01)"
2025/07/11/14:09:37.765969,215,1752242977,765517242,imu_link,0.005028893548533252,-0.0035738559029719836,-0.9877533615124408,0.15590136177896544,"(0.001, 0.0, 0.0, 0.0, 0.001, 0.0, 0.0, 0.0, 0.001)",-0.018109495103624133,0.04048004787868924,-0.3600593732367621,"(1e-05, 0.0, 0.0, 0.0, 1e-05, 0.0, 0.0, 0.0, 1e-05)",-0.6316406250000001,0.92353515625,9.508105468750001,"(0.01, 0.0, 0.0, 0.0, 0.01, 0.0, 0.0, 0.0, 0.01)"
2025/07/11/14:09:37.808360,216,1752242977,808140303,imu_link,0.005028893548533252,-0.0035738559029719836,-0.9877533615124408,0.15590136177896544,"(0.001, 0.0, 0.0, 0.0, 0.001, 0.0, 0.0, 0.0, 0.001)",-0.018109495103624133,0.04048004787868924,-0.3600593732367621,"(1e-05, 0.0, 0.0, 0.0, 1e-05, 0.0, 0.0, 0.0, 1e-05)",-0.516796875,0.401953125,9.8,"(0.01, 0.0, 0.0, 0.0, 0.01, 0.0, 0.0, 0.0, 0.01)"
2025/07/11/14:09:37.858568,217,1752242977,858326922,imu_link,0.005713768855114242,-0.0032201247339829608,-0.9890737338001341,0.1472757031856555,"(0.001, 0.0, 0.0, 0.0, 0.001, 0.0, 0.0, 0.0, 0.001)",-0.01384843743218316,0.02769687486436632,-0.3408846137152778,"(1e-05, 0.0, 0.0, 0.0, 1e-05, 0.0, 0.0, 0.0, 1e-05)",-0.43544921875000003,0.27275390625,10.0392578125,"(0.01, 0.0, 0.0, 0.0, 0.01, 0.0, 0.0, 0.0, 0.01)"
2025/07/11/14:09:37.865952,218,1752242977,865520479,imu_link,0.006365089372104973,-0.003268368296416652,-0.9902441439529639,0.13915940059092552,"(0.001, 0.0, 0.0, 0.0, 0.001, 0.0, 0.0, 0.0, 0.001)",0.04580636996799045,0.025566346028645832,-0.34621093580457896,"(1e-05, 0.0, 0.0, 0.0, 1e-05, 0.0, 0.0, 0.0, 1e-05)",-0.43544921875000003,0.27275390625,10.0392578125,"(0.01, 0.0, 0.0, 0.0, 0.01, 0.0, 0.0, 0.0, 0.01)"
2025/07/11/14:09:37.908905,219,1752242977,908630834,imu_link,0.006365089372104973,-0.003268368296416652,-0.9902441439529639,0.13915940059092552,"(0.001, 0.0, 0.0, 0.0, 0.001, 0.0, 0.0, 0.0, 0.001)",0.04580636996799045,0.025566346028645832,-0.34621093580457896,"(1e-05, 0.0, 0.0, 0.0, 1e-05, 0.0, 0.0, 0.0, 1e-05)",0.095703125,0.13398437500000002,9.886132812500001,"(0.01, 0.0, 0.0, 0.0, 0.01, 0.0, 0.0, 0.0, 0.01)"
2025/07/11/14:09:37.959174,220,1752242977,958874907,imu_link,0.006199202987365832,-0.004114884843502755,-0.9914063900372049,0.13060630688616737,"(0.001, 0.0, 0.0, 0.0, 0.001, 0.0, 0.0, 0.0, 0.001)",0.02876213928222656,-0.005326322089301215,-0.34621093580457896,"(1e-05, 0.0, 0.0, 0.0, 1e-05, 0.0, 0.0, 0.0, 1e-05)",0.27753906250000004,0.2009765625,9.599023437500001,"(0.01, 0.0, 0.0, 0.0, 0.01, 0.0, 0.0, 0.0, 0.01)"
2025/07/11/14:09:37.965898,221,1752242977,965495245,imu_link,0.006471104283822057,-0.004710501164998525,-0.9925043557944422,0.12194687251906759,"(0.001, 0.0, 0.0, 0.0, 0.001, 0.0, 0.0, 0.0, 0.001)",0.02769687486436632,0.019174759521484376,-0.3707120174153646,"(1e-05, 0.0, 0.0, 0.0, 1e-05, 0.0, 0.0, 0.0, 1e-05)",0.27753906250000004,0.2009765625,9.599023437500001,"(0.01, 0.0, 0.0, 0.0, 0.01, 0.0, 0.0, 0.0, 0.01)"
2025/07/11/14:09:38.009390,222,1752242978,9138526,imu_link,0.006471104283822057,-0.004710501164998525,-0.9925043557944422,0.12194687251906759,"(0.001, 0.0, 0.0, 0.0, 0.001, 0.0, 0.0, 0.0, 0.001)",0.02769687486436632,0.019174759521484376,-0.3707120174153646,"(1e-05, 0.0, 0.0, 0.0, 1e-05, 0.0, 0.0, 0.0, 1e-05)",0.29189453125000003,0.11005859375,9.933984375000001,"(0.01, 0.0, 0.0, 0.0, 0.01, 0.0, 0.0, 0.0, 0.01)"
2025/07/11/14:09:38.059607,223,1752242978,59352116,imu_link,0.007028595434898245,-0.004994750488315121,-0.9936448640782446,0.11222983295318048,"(0.001, 0.0, 0.0, 0.0, 0.001, 0.0, 0.0, 0.0, 0.001)",-0.002130528835720486,0.019174759521484376,-0.4154531229654948,"(1e-05, 0.0, 0.0, 0.0, 1e-05, 0.0, 0.0, 0.0, 1e-05)",-0.27275390625,0.31103515625,10.034472656250001,"(0.01, 0.0, 0.0, 0.0, 0.01, 0.0, 0.0, 0.0, 0.01)"
2025/07/11/14:09:38.065951,224,1752242978,65495017,imu_link,0.0074885570183384235,-0.005405225430823361,-0.9948217889131277,0.10121419542489757,"(0.001, 0.0, 0.0, 0.0, 0.001, 0.0, 0.0, 0.0, 0.001)",0.006391586507161458,-0.003195793253580729,-0.44314999782986114,"(1e-05, 0.0, 0.0, 0.0, 1e-05, 0.0, 0.0, 0.0, 1e-05)",-0.27275390625,0.31103515625,10.034472656250001,"(0.01, 0.0, 0.0, 0.0, 0.01, 0.0, 0.0, 0.0, 0.01)"
2025/07/11/14:09:38.109904,225,1752242978,109648445,imu_link,0.0074885570183384235,-0.005405225430823361,-0.9948217889131277,0.10121419542489757,"(0.001, 0.0, 0.0, 0.0, 0.001, 0.0, 0.0, 0.0, 0.001)",0.006391586507161458,-0.003195793253580729,-0.44314999782986114,"(1e-05, 0.0, 0.0, 0.0, 1e-05, 0.0, 0.0, 0.0, 1e-05)",0.41152343750000003,0.12919921875,9.63251953125,"(0.01, 0.0, 0.0, 0.0, 0.01, 0.0, 0.0, 0.0, 0.01)"
2025/07/11/14:09:38.160211,226,1752242978,159921644,imu_link,0.00745917312455086,-0.0058743812290793194,-0.995935394378971,0.08956864744248814,"(0.001, 0.0, 0.0, 0.0, 0.001, 0.0, 0.0, 0.0, 0.001)",0.031957932535807296,0.06391586507161459,-0.4687163438585069,"(1e-05, 0.0, 0.0, 0.0, 1e-05, 0.0, 0.0, 0.0, 1e-05)",1.2776367187500002,-0.6125,9.85263671875,"(0.01, 0.0, 0.0, 0.0, 0.01, 0.0, 0.0, 0.0, 0.01)"
2025/07/11/14:09:38.165976,227,1752242978,165497440,imu_link,0.007533890497549135,-0.005949284326506487,-0.9969064917330515,0.07800828962663316,"(0.001, 0.0, 0.0, 0.0, 0.001, 0.0, 0.0, 0.0, 0.001)",0.02024002393934462,0.04048004787868924,-0.464455286187066,"(1e-05, 0.0, 0.0, 0.0, 1e-05, 0.0, 0.0, 0.0, 1e-05)",1.2776367187500002,-0.6125,9.85263671875,"(0.01, 0.0, 0.0, 0.0, 0.01, 0.0, 0.0, 0.0, 0.01)"
2025/07/11/14:09:38.210400,228,1752242978,210124291,imu_link,0.007533890497549135,-0.005949284326506487,-0.9969064917330515,0.07800828962663316,"(0.001, 0.0, 0.0, 0.0, 0.001, 0.0, 0.0, 0.0, 0.001)",0.02024002393934462,0.04048004787868924,-0.464455286187066,"(1e-05, 0.0, 0.0, 0.0, 1e-05, 0.0, 0.0, 0.0, 1e-05)",0.06699218750000001,0.44501953125000004,9.78564453125,"(0.01, 0.0, 0.0, 0.0, 0.01, 0.0, 0.0, 0.0, 0.01)"
2025/07/11/14:09:38.260652,229,1752242978,260386065,imu_link,0.008661799676409666,-0.006058847139052981,-0.9977858033332238,0.06566394950339699,"(0.001, 0.0, 0.0, 0.0, 0.001, 0.0, 0.0, 0.0, 0.001)",0.015978966267903648,-0.015978966267903648,-0.49321742546929254,"(1e-05, 0.0, 0.0, 0.0, 1e-05, 0.0, 0.0, 0.0, 1e-05)",-0.3349609375,0.29189453125000003,9.886132812500001,"(0.01, 0.0, 0.0, 0.0, 0.01, 0.0, 0.0, 0.0, 0.01)"
2025/07/11/14:09:38.266026,230,1752242978,265513282,imu_link,0.00916029845876846,-0.006135211870904341,-0.9985194424928017,0.053266979183258324,"(0.001, 0.0, 0.0, 0.0, 0.001, 0.0, 0.0, 0.0, 0.001)",0.014913701850043402,0.01065264417860243,-0.4974784831407335,"(1e-05, 0.0, 0.0, 0.0, 1e-05, 0.0, 0.0, 0.0, 1e-05)",-0.3349609375,0.29189453125000003,9.886132812500001,"(0.01, 0.0, 0.0, 0.0, 0.01, 0.0, 0.0, 0.0, 0.01)"
2025/07/11/14:09:38.310997,231,1752242978,310658392,imu_link,0.00916029845876846,-0.006135211870904341,-0.9985194424928017,0.053266979183258324,"(0.001, 0.0, 0.0, 0.0, 0.001, 0.0, 0.0, 0.0, 0.001)",0.014913701850043402,0.01065264417860243,-0.4974784831407335,"(1e-05, 0.0, 0.0, 0.0, 1e-05, 0.0, 0.0, 0.0, 1e-05)",-0.12919921875,0.34453125,9.747363281250001,"(0.01, 0.0, 0.0, 0.0, 0.01, 0.0, 0.0, 0.0, 0.01)"
2025/07/11/14:09:38.361298,232,1752242978,360861219,imu_link,0.00947030698949653,-0.006379609620274359,-0.9991132102243832,0.04052662114888313,"(0.001, 0.0, 0.0, 0.0, 0.001, 0.0, 0.0, 0.0, 0.001)",0.006391586507161458,0.012783173014322916,-0.5134574494086371,"(1e-05, 0.0, 0.0, 0.0, 1e-05, 0.0, 0.0, 0.0, 1e-05)",0.052636718750000006,0.21533203125000003,9.704296875,"(0.01, 0.0, 0.0, 0.0, 0.01, 0.0, 0.0, 0.0, 0.01)"
2025/07/11/14:09:38.365874,233,1752242978,365489458,imu_link,0.01039104455232524,-0.006527136132908241,-0.9995585607390319,0.027057463671397903,"(0.001, 0.0, 0.0, 0.0, 0.001, 0.0, 0.0, 0.0, 0.001)",-0.01065264417860243,0.025566346028645832,-0.5475459107801649,"(1e-05, 0.0, 0.0, 0.0, 1e-05, 0.0, 0.0, 0.0, 1e-05)",0.052636718750000006,0.21533203125000003,9.704296875,"(0.01, 0.0, 0.0, 0.0, 0.01, 0.0, 0.0, 0.0, 0.01)"
2025/07/11/14:09:38.411468,234,1752242978,411135911,imu_link,0.01039104455232524,-0.006527136132908241,-0.9995585607390319,0.027057463671397903,"(0.001, 0.0, 0.0, 0.0, 0.001, 0.0, 0.0, 0.0, 0.001)",-0.01065264417860243,0.025566346028645832,-0.5475459107801649,"(1e-05, 0.0, 0.0, 0.0, 1e-05, 0.0, 0.0, 0.0, 1e-05)",-0.13398437500000002,0.26796875000000003,9.957910156250001,"(0.01, 0.0, 0.0, 0.0, 0.01, 0.0, 0.0, 0.0, 0.01)"
2025/07/11/14:09:38.461858,235,1752242978,461497852,imu_link,0.011202777235028261,-0.006475180956710036,-0.9998389371744418,0.012436620267699363,"(0.001, 0.0, 0.0, 0.0, 0.001, 0.0, 0.0, 0.0, 0.001)",-0.009587379760742188,0.02343581719292535,-0.5805691077338324,"(1e-05, 0.0, 0.0, 0.0, 1e-05, 0.0, 0.0, 0.0, 1e-05)",0.37802734375,-0.22490234375,9.92919921875,"(0.01, 0.0, 0.0, 0.0, 0.01, 0.0, 0.0, 0.0, 0.01)"
2025/07/11/14:09:38.465874,236,1752242978,465488433,imu_link,-0.011438358680720939,0.006407522659416166,0.9999098415489304,0.002901099386961046,"(0.001, 0.0, 0.0, 0.0, 0.001, 0.0, 0.0, 0.0, 0.001)",0.004261057671440972,0.02450108161078559,-0.6082659825981988,"(1e-05, 0.0, 0.0, 0.0, 1e-05, 0.0, 0.0, 0.0, 1e-05)",0.37802734375,-0.22490234375,9.92919921875,"(0.01, 0.0, 0.0, 0.0, 0.01, 0.0, 0.0, 0.0, 0.01)"
2025/07/11/14:09:38.512048,237,1752242978,511685666,imu_link,-0.011438358680720939,0.006407522659416166,0.9999098415489304,0.002901099386961046,"(0.001, 0.0, 0.0, 0.0, 0.001, 0.0, 0.0, 0.0, 0.001)",0.004261057671440972,0.02450108161078559,-0.6082659825981988,"(1e-05, 0.0, 0.0, 0.0, 1e-05, 0.0, 0.0, 0.0, 1e-05)",0.06699218750000001,0.287109375,9.981835937500001,"(0.01, 0.0, 0.0, 0.0, 0.01, 0.0, 0.0, 0.0, 0.01)"
2025/07/11/14:09:38.562236,238,1752242978,561866907,imu_link,-0.012190259912714899,0.006942070093357292,0.9997216932587444,0.018966846178232494,"(0.001, 0.0, 0.0, 0.0, 0.001, 0.0, 0.0, 0.0, 0.001)",-0.004261057671440972,-0.02343581719292535,-0.6178533623589411,"(1e-05, 0.0, 0.0, 0.0, 1e-05, 0.0, 0.0, 0.0, 1e-05)",0.06699218750000001,-0.03828125,10.029687500000001,"(0.01, 0.0, 0.0, 0.0, 0.01, 0.0, 0.0, 0.0, 0.01)"
2025/07/11/14:09:38.565870,239,1752242978,565501860,imu_link,-0.012794380255740416,0.007164440892697535,0.9992722020019139,0.03521421484021358,"(0.001, 0.0, 0.0, 0.0, 0.001, 0.0, 0.0, 0.0, 0.001)",-0.02024002393934462,-0.02130528835720486,-0.6338323286268447,"(1e-05, 0.0, 0.0, 0.0, 1e-05, 0.0, 0.0, 0.0, 1e-05)",0.06699218750000001,-0.03828125,10.029687500000001,"(0.01, 0.0, 0.0, 0.0, 0.01, 0.0, 0.0, 0.0, 0.01)"
2025/07/11/14:09:38.612521,240,1752242978,612158766,imu_link,-0.012794380255740416,0.007164440892697535,0.9992722020019139,0.03521421484021358,"(0.001, 0.0, 0.0, 0.0, 0.001, 0.0, 0.0, 0.0, 0.001)",-0.02024002393934462,-0.02130528835720486,-0.6338323286268447,"(1e-05, 0.0, 0.0, 0.0, 1e-05, 0.0, 0.0, 0.0, 1e-05)",0.08134765625000001,0.06220703125,9.94833984375,"(0.01, 0.0, 0.0, 0.0, 0.01, 0.0, 0.0, 0.0, 0.01)"
2025/07/11/14:09:38.662731,241,1752242978,662403073,imu_link,-0.013156036293831755,0.00730718235148404,0.9985349469826824,0.05197579676550579,"(0.001, 0.0, 0.0, 0.0, 0.001, 0.0, 0.0, 0.0, 0.001)",-0.04048004787868924,-0.0543284853108724,-0.648746030476888,"(1e-05, 0.0, 0.0, 0.0, 1e-05, 0.0, 0.0, 0.0, 1e-05)",0.30146484375000004,-0.27753906250000004,9.910058593750001,"(0.01, 0.0, 0.0, 0.0, 0.01, 0.0, 0.0, 0.0, 0.01)"
2025/07/11/14:09:38.665941,242,1752242978,665488167,imu_link,-0.01334142095163047,0.007170440651707322,0.997488117167026,0.06919571791977472,"(0.001, 0.0, 0.0, 0.0, 0.001, 0.0, 0.0, 0.0, 0.001)",-0.02769687486436632,-0.02876213928222656,-0.6647249967447917,"(1e-05, 0.0, 0.0, 0.0, 1e-05, 0.0, 0.0, 0.0, 1e-05)",0.30146484375000004,-0.27753906250000004,9.910058593750001,"(0.01, 0.0, 0.0, 0.0, 0.01, 0.0, 0.0, 0.0, 0.01)"
2025/07/11/14:09:38.713109,243,1752242978,712728655,imu_link,-0.01334142095163047,0.007170440651707322,0.997488117167026,0.06919571791977472,"(0.001, 0.0, 0.0, 0.0, 0.001, 0.0, 0.0, 0.0, 0.001)",-0.02769687486436632,-0.02876213928222656,-0.6647249967447917,"(1e-05, 0.0, 0.0, 0.0, 1e-05, 0.0, 0.0, 0.0, 1e-05)",0.33974609375000003,0.34453125,9.862207031250001,"(0.01, 0.0, 0.0, 0.0, 0.01, 0.0, 0.0, 0.0, 0.01)"
2025/07/11/14:09:38.763337,244,1752242978,762935791,imu_link,-0.01389173458037954,0.007283777940549956,0.9960286550728908,0.08764065587927405,"(0.001, 0.0, 0.0, 0.0, 0.001, 0.0, 0.0, 0.0, 0.001)",-0.002130528835720486,0.02876213928222656,-0.7158576888020833,"(1e-05, 0.0, 0.0, 0.0, 1e-05, 0.0, 0.0, 0.0, 1e-05)",-0.248828125,0.7560546875,9.54638671875,"(0.01, 0.0, 0.0, 0.0, 0.01, 0.0, 0.0, 0.0, 0.01)"
2025/07/11/14:09:38.765810,245,1752242978,765485289,imu_link,-0.014594718638222709,0.00726626251149771,0.9940681407662793,0.10753012196802442,"(0.001, 0.0, 0.0, 0.0, 0.001, 0.0, 0.0, 0.0, 0.001)",-0.02130528835720486,0.0617853362358941,-0.7222492753092449,"(1e-05, 0.0, 0.0, 0.0, 1e-05, 0.0, 0.0, 0.0, 1e-05)",-0.248828125,0.7560546875,9.54638671875,"(0.01, 0.0, 0.0, 0.0, 0.01, 0.0, 0.0, 0.0, 0.01)"
2025/07/11/14:09:38.813550,246,1752242978,813178755,imu_link,-0.014594718638222709,0.00726626251149771,0.9940681407662793,0.10753012196802442,"(0.001, 0.0, 0.0, 0.0, 0.001, 0.0, 0.0, 0.0, 0.001)",-0.02130528835720486,0.0617853362358941,-0.7222492753092449,"(1e-05, 0.0, 0.0, 0.0, 1e-05, 0.0, 0.0, 0.0, 1e-05)",-0.42109375000000004,1.1484375,9.35498046875,"(0.01, 0.0, 0.0, 0.0, 0.01, 0.0, 0.0, 0.0, 0.01)"
2025/07/11/14:09:38.863827,247,1752242978,863433814,imu_link,-0.015286327261358666,0.007002471964837857,0.991596204342177,0.12827416388122692,"(0.001, 0.0, 0.0, 0.0, 0.001, 0.0, 0.0, 0.0, 0.001)",-0.002130528835720486,-0.01065264417860243,-0.7510114145914712,"(1e-05, 0.0, 0.0, 0.0, 1e-05, 0.0, 0.0, 0.0, 1e-05)",-0.9570312500000001,0.19140625,9.9244140625,"(0.01, 0.0, 0.0, 0.0, 0.01, 0.0, 0.0, 0.0, 0.01)"
2025/07/11/14:09:38.865787,248,1752242978,865484865,imu_link,-0.016147567189867013,0.00670692250879968,0.9886028628460173,0.14952810049274473,"(0.001, 0.0, 0.0, 0.0, 0.001, 0.0, 0.0, 0.0, 0.001)",-0.02876213928222656,-0.001065264417860243,-0.748880885755751,"(1e-05, 0.0, 0.0, 0.0, 1e-05, 0.0, 0.0, 0.0, 1e-05)",-0.9570312500000001,0.19140625,9.9244140625,"(0.01, 0.0, 0.0, 0.0, 0.01, 0.0, 0.0, 0.0, 0.01)"
2025/07/11/14:09:38.914119,249,1752242978,913682801,imu_link,-0.016147567189867013,0.00670692250879968,0.9886028628460173,0.14952810049274473,"(0.001, 0.0, 0.0, 0.0, 0.001, 0.0, 0.0, 0.0, 0.001)",-0.02876213928222656,-0.001065264417860243,-0.748880885755751,"(1e-05, 0.0, 0.0, 0.0, 1e-05, 0.0, 0.0, 0.0, 1e-05)",-0.73212890625,0.3349609375,9.866992187500001,"(0.01, 0.0, 0.0, 0.0, 0.01, 0.0, 0.0, 0.0, 0.01)"
2025/07/11/14:09:38.964434,250,1752242978,963930364,imu_link,-0.016355338582096035,0.006393256571019186,0.9850744010626209,0.17123099468671243,"(0.001, 0.0, 0.0, 0.0, 0.001, 0.0, 0.0, 0.0, 0.001)",-0.002130528835720486,0.03728425462510851,-0.7531419434271919,"(1e-05, 0.0, 0.0, 0.0, 1e-05, 0.0, 0.0, 0.0, 1e-05)",-0.07177734375,0.03828125,9.80478515625,"(0.01, 0.0, 0.0, 0.0, 0.01, 0.0, 0.0, 0.0, 0.01)"
2025/07/11/14:09:38.965843,251,1752242978,965485003,imu_link,-0.01667357667172695,0.005878389031699864,0.9809307224135949,0.19355194188771888,"(0.001, 0.0, 0.0, 0.0, 0.001, 0.0, 0.0, 0.0, 0.001)",-0.02024002393934462,0.04580636996799045,-0.7637945876057942,"(1e-05, 0.0, 0.0, 0.0, 1e-05, 0.0, 0.0, 0.0, 1e-05)",-0.07177734375,0.03828125,9.80478515625,"(0.01, 0.0, 0.0, 0.0, 0.01, 0.0, 0.0, 0.0, 0.01)"
2025/07/11/14:09:39.014951,252,1752242979,14238127,imu_link,-0.01667357667172695,0.005878389031699864,0.9809307224135949,0.19355194188771888,"(0.001, 0.0, 0.0, 0.0, 0.001, 0.0, 0.0, 0.0, 0.001)",-0.02024002393934462,0.04580636996799045,-0.7637945876057942,"(1e-05, 0.0, 0.0, 0.0, 1e-05, 0.0, 0.0, 0.0, 1e-05)",0.30146484375000004,0.11962890625000001,9.8287109375,"(0.01, 0.0, 0.0, 0.0, 0.01, 0.0, 0.0, 0.0, 0.01)"
2025/07/11/14:09:39.065259,253,1752242979,64817480,imu_link,-0.01752199985205039,0.005560772882101692,0.9760426445605354,0.21680132224092843,"(0.001, 0.0, 0.0, 0.0, 0.001, 0.0, 0.0, 0.0, 0.001)",-0.017044230685763887,0.02663161044650608,-0.7669903808593751,"(1e-05, 0.0, 0.0, 0.0, 1e-05, 0.0, 0.0, 0.0, 1e-05)",0.20576171875000002,0.13398437500000002,9.87177734375,"(0.01, 0.0, 0.0, 0.0, 0.01, 0.0, 0.0, 0.0, 0.01)"
2025/07/11/14:09:39.065787,254,1752242979,65470901,imu_link,-0.018368158239929745,0.004993000393509863,0.9705021863846678,0.2403397323218177,"(0.001, 0.0, 0.0, 0.0, 0.001, 0.0, 0.0, 0.0, 0.001)",-0.031957932535807296,0.022370552775065104,-0.7360977127414279,"(1e-05, 0.0, 0.0, 0.0, 1e-05, 0.0, 0.0, 0.0, 1e-05)",0.20576171875000002,0.13398437500000002,9.87177734375,"(0.01, 0.0, 0.0, 0.0, 0.01, 0.0, 0.0, 0.0, 0.01)"
2025/07/11/14:09:39.115042,255,1752242979,114707365,imu_link,-0.018368158239929745,0.004993000393509863,0.9705021863846678,0.2403397323218177,"(0.001, 0.0, 0.0, 0.0, 0.001, 0.0, 0.0, 0.0, 0.001)",-0.031957932535807296,0.022370552775065104,-0.7360977127414279,"(1e-05, 0.0, 0.0, 0.0, 1e-05, 0.0, 0.0, 0.0, 1e-05)",-0.172265625,0.28232421875,9.862207031250001,"(0.01, 0.0, 0.0, 0.0, 0.01, 0.0, 0.0, 0.0, 0.01)"
2025/07/11/14:09:39.165292,256,1752242979,164934889,imu_link,-0.019071980657756442,0.004582696255712252,0.9642302476506303,0.26433934244531637,"(0.001, 0.0, 0.0, 0.0, 0.001, 0.0, 0.0, 0.0, 0.001)",-0.031957932535807296,0.015978966267903648,-0.7403587704128689,"(1e-05, 0.0, 0.0, 0.0, 1e-05, 0.0, 0.0, 0.0, 1e-05)",-0.057421875000000004,0.15791015625000002,9.699511718750001,"(0.01, 0.0, 0.0, 0.0, 0.01, 0.0, 0.0, 0.0, 0.01)"
2025/07/11/14:09:39.165766,257,1752242979,165461075,imu_link,-0.019071980657756442,0.004582696255712252,0.9642302476506303,0.26433934244531637,"(0.001, 0.0, 0.0, 0.0, 0.001, 0.0, 0.0, 0.0, 0.001)",-0.047936898803710944,0.03728425462510851,-0.7595335299343533,"(1e-05, 0.0, 0.0, 0.0, 1e-05, 0.0, 0.0, 0.0, 1e-05)",-0.057421875000000004,0.15791015625000002,9.699511718750001,"(0.01, 0.0, 0.0, 0.0, 0.01, 0.0, 0.0, 0.0, 0.01)"
2025/07/11/14:09:39.215574,258,1752242979,215215767,imu_link,-0.019802299235212168,0.004232804742266833,0.9570455865415165,0.28922948948960503,"(0.001, 0.0, 0.0, 0.0, 0.001, 0.0, 0.0, 0.0, 0.001)",-0.047936898803710944,0.03728425462510851,-0.7595335299343533,"(1e-05, 0.0, 0.0, 0.0, 1e-05, 0.0, 0.0, 0.0, 1e-05)",-0.34453125,0.31582031250000003,9.77607421875,"(0.01, 0.0, 0.0, 0.0, 0.01, 0.0, 0.0, 0.0, 0.01)"
2025/07/11/14:09:39.265804,259,1752242979,265394305,imu_link,-0.020905754226322175,0.003817332524514289,0.9487606106539693,0.3152803214349618,"(0.001, 0.0, 0.0, 0.0, 0.001, 0.0, 0.0, 0.0, 0.001)",-0.0468716343858507,0.05965480740017361,-0.7808388182915582,"(1e-05, 0.0, 0.0, 0.0, 1e-05, 0.0, 0.0, 0.0, 1e-05)",-0.46416015625,-0.02392578125,9.9052734375,"(0.01, 0.0, 0.0, 0.0, 0.01, 0.0, 0.0, 0.0, 0.01)"
2025/07/11/14:09:39.265859,260,1752242979,265490192,imu_link,-0.020905754226322175,0.003817332524514289,0.9487606106539693,0.3152803214349618,"(0.001, 0.0, 0.0, 0.0, 0.001, 0.0, 0.0, 0.0, 0.001)",-0.0468716343858507,0.05965480740017361,-0.7808388182915582,"(1e-05, 0.0, 0.0, 0.0, 1e-05, 0.0, 0.0, 0.0, 1e-05)",-0.46416015625,-0.02392578125,9.9052734375,"(0.01, 0.0, 0.0, 0.0, 0.01, 0.0, 0.0, 0.0, 0.01)"
2025/07/11/14:09:39.316109,261,1752242979,315675525,imu_link,-0.022330225291297707,0.0035332016008817026,0.9395470677363935,0.34167262845131774,"(0.001, 0.0, 0.0, 0.0, 0.001, 0.0, 0.0, 0.0, 0.001)",0.0,0.09267800435384115,-0.7829693471272787,"(1e-05, 0.0, 0.0, 0.0, 1e-05, 0.0, 0.0, 0.0, 1e-05)",-0.47851562500000006,-0.15791015625000002,10.034472656250001,"(0.01, 0.0, 0.0, 0.0, 0.01, 0.0, 0.0, 0.0, 0.01)"
2025/07/11/14:09:39.365940,262,1752242979,365497483,imu_link,-0.023076172940185918,0.003821225798221783,0.9296574476030061,0.36768181705395436,"(0.001, 0.0, 0.0, 0.0, 0.001, 0.0, 0.0, 0.0, 0.001)",0.034088461371527774,0.047936898803710944,-0.7520766790093316,"(1e-05, 0.0, 0.0, 0.0, 1e-05, 0.0, 0.0, 0.0, 1e-05)",-0.47851562500000006,-0.15791015625000002,10.034472656250001,"(0.01, 0.0, 0.0, 0.0, 0.01, 0.0, 0.0, 0.0, 0.01)"
2025/07/11/14:09:39.366286,263,1752242979,365906686,imu_link,-0.023076172940185918,0.003821225798221783,0.9296574476030061,0.36768181705395436,"(0.001, 0.0, 0.0, 0.0, 0.001, 0.0, 0.0, 0.0, 0.001)",0.034088461371527774,0.047936898803710944,-0.7520766790093316,"(1e-05, 0.0, 0.0, 0.0, 1e-05, 0.0, 0.0, 0.0, 1e-05)",-0.34453125,0.5550781250000001,9.66123046875,"(0.01, 0.0, 0.0, 0.0, 0.01, 0.0, 0.0, 0.0, 0.01)"
2025/07/11/14:09:39.416585,264,1752242979,416192576,imu_link,-0.02296955022215092,0.004557234821241985,0.9192637785536997,0.3929449539217304,"(0.001, 0.0, 0.0, 0.0, 0.001, 0.0, 0.0, 0.0, 0.001)",0.05219795647515191,0.056459014146592885,-0.7233145397271051,"(1e-05, 0.0, 0.0, 0.0, 1e-05, 0.0, 0.0, 0.0, 1e-05)",-0.2009765625,0.21054687500000002,9.4171875,"(0.01, 0.0, 0.0, 0.0, 0.01, 0.0, 0.0, 0.0, 0.01)"
2025/07/11/14:09:39.465975,265,1752242979,465490212,imu_link,-0.02315185952757241,0.005076713707097273,0.9079814089442829,0.41833955035342574,"(0.001, 0.0, 0.0, 0.0, 0.001, 0.0, 0.0, 0.0, 0.001)",0.015978966267903648,0.04580636996799045,-0.727575597398546,"(1e-05, 0.0, 0.0, 0.0, 1e-05, 0.0, 0.0, 0.0, 1e-05)",-0.2009765625,0.21054687500000002,9.4171875,"(0.01, 0.0, 0.0, 0.0, 0.01, 0.0, 0.0, 0.0, 0.01)"
2025/07/11/14:09:39.466655,266,1752242979,466381697,imu_link,-0.02315185952757241,0.005076713707097273,0.9079814089442829,0.41833955035342574,"(0.001, 0.0, 0.0, 0.0, 0.001, 0.0, 0.0, 0.0, 0.001)",0.015978966267903648,0.04580636996799045,-0.727575597398546,"(1e-05, 0.0, 0.0, 0.0, 1e-05, 0.0, 0.0, 0.0, 1e-05)",-0.11484375000000001,-0.12919921875,10.130175781250001,"(0.01, 0.0, 0.0, 0.0, 0.01, 0.0, 0.0, 0.0, 0.01)"
2025/07/11/14:09:39.517287,267,1752242979,516864852,imu_link,-0.02379457593068299,0.005191736399814689,0.8961662601402623,0.44304954374838196,"(0.001, 0.0, 0.0, 0.0, 0.001, 0.0, 0.0, 0.0, 0.001)",-0.02450108161078559,0.015978966267903648,-0.6721818476698134,"(1e-05, 0.0, 0.0, 0.0, 1e-05, 0.0, 0.0, 0.0, 1e-05)",-0.2009765625,-0.22490234375,9.910058593750001,"(0.01, 0.0, 0.0, 0.0, 0.01, 0.0, 0.0, 0.0, 0.01)"
2025/07/11/14:09:39.565897,268,1752242979,565476998,imu_link,-0.02437465415645747,0.005885507725112316,0.8839854070299511,0.4668415546967328,"(0.001, 0.0, 0.0, 0.0, 0.001, 0.0, 0.0, 0.0, 0.001)",-0.02343581719292535,0.03089266811794705,-0.6636597323269314,"(1e-05, 0.0, 0.0, 0.0, 1e-05, 0.0, 0.0, 0.0, 1e-05)",-0.2009765625,-0.22490234375,9.910058593750001,"(0.01, 0.0, 0.0, 0.0, 0.01, 0.0, 0.0, 0.0, 0.01)"
2025/07/11/14:09:39.567316,269,1752242979,566949859,imu_link,-0.02437465415645747,0.005885507725112316,0.8839854070299511,0.4668415546967328,"(0.001, 0.0, 0.0, 0.0, 0.001, 0.0, 0.0, 0.0, 0.001)",-0.02343581719292535,0.03089266811794705,-0.6636597323269314,"(1e-05, 0.0, 0.0, 0.0, 1e-05, 0.0, 0.0, 0.0, 1e-05)",-0.033496093750000004,-0.03828125,9.866992187500001,"(0.01, 0.0, 0.0, 0.0, 0.01, 0.0, 0.0, 0.0, 0.01)"
2025/07/11/14:09:39.617721,270,1752242979,617293112,imu_link,-0.024506243653981602,0.006195922271736906,0.8713956912889186,0.4899291824052554,"(0.001, 0.0, 0.0, 0.0, 0.001, 0.0, 0.0, 0.0, 0.001)",-0.015978966267903648,0.004261057671440972,-0.6380933862982856,"(1e-05, 0.0, 0.0, 0.0, 1e-05, 0.0, 0.0, 0.0, 1e-05)",-0.708203125,0.3923828125,9.723437500000001,"(0.01, 0.0, 0.0, 0.0, 0.01, 0.0, 0.0, 0.0, 0.01)"
2025/07/11/14:09:39.665909,271,1752242979,665491734,imu_link,-0.024905053124522385,0.006717706076378207,0.8584669986559008,0.5122197018591391,"(0.001, 0.0, 0.0, 0.0, 0.001, 0.0, 0.0, 0.0, 0.001)",0.005326322089301215,0.047936898803710944,-0.6157228335232205,"(1e-05, 0.0, 0.0, 0.0, 1e-05, 0.0, 0.0, 0.0, 1e-05)",-0.708203125,0.3923828125,9.723437500000001,"(0.01, 0.0, 0.0, 0.0, 0.01, 0.0, 0.0, 0.0, 0.01)"
2025/07/11/14:09:39.667815,272,1752242979,667411891,imu_link,-0.024905053124522385,0.006717706076378207,0.8584669986559008,0.5122197018591391,"(0.001, 0.0, 0.0, 0.0, 0.001, 0.0, 0.0, 0.0, 0.001)",0.005326322089301215,0.047936898803710944,-0.6157228335232205,"(1e-05, 0.0, 0.0, 0.0, 1e-05, 0.0, 0.0, 0.0, 1e-05)",-0.5263671875,0.19619140625,9.862207031250001,"(0.01, 0.0, 0.0, 0.0, 0.01, 0.0, 0.0, 0.0, 0.01)"
2025/07/11/14:09:39.718211,273,1752242979,717767241,imu_link,-0.024999875344847298,0.006999603565500301,0.845384549434707,0.5335269209325291,"(0.001, 0.0, 0.0, 0.0, 0.001, 0.0, 0.0, 0.0, 0.001)",0.005326322089301215,0.029827403700086803,-0.582699636569553,"(1e-05, 0.0, 0.0, 0.0, 1e-05, 0.0, 0.0, 0.0, 1e-05)",-0.15791015625000002,-0.019140625,9.914843750000001,"(0.01, 0.0, 0.0, 0.0, 0.01, 0.0, 0.0, 0.0, 0.01)"
2025/07/11/14:09:39.765941,274,1752242979,765502733,imu_link,-0.02480906160655547,0.007538614415157736,0.8321704745327093,0.553913333537754,"(0.001, 0.0, 0.0, 0.0, 0.001, 0.0, 0.0, 0.0, 0.001)",0.018109495103624133,0.025566346028645832,-0.5635248770480686,"(1e-05, 0.0, 0.0, 0.0, 1e-05, 0.0, 0.0, 0.0, 1e-05)",-0.15791015625000002,-0.019140625,9.914843750000001,"(0.01, 0.0, 0.0, 0.0, 0.01, 0.0, 0.0, 0.0, 0.01)"
2025/07/11/14:09:39.768481,275,1752242979,767899900,imu_link,-0.02480906160655547,0.007538614415157736,0.8321704745327093,0.553913333537754,"(0.001, 0.0, 0.0, 0.0, 0.001, 0.0, 0.0, 0.0, 0.001)",0.018109495103624133,0.025566346028645832,-0.5635248770480686,"(1e-05, 0.0, 0.0, 0.0, 1e-05, 0.0, 0.0, 0.0, 1e-05)",0.172265625,-0.06220703125,9.8287109375,"(0.01, 0.0, 0.0, 0.0, 0.01, 0.0, 0.0, 0.0, 0.01)"
2025/07/11/14:09:39.818552,276,1752242979,818183183,imu_link,-0.024258674025924534,0.007809645911044314,0.8188292244021858,0.5734712088938407,"(0.001, 0.0, 0.0, 0.0, 0.001, 0.0, 0.0, 0.0, 0.001)",0.015978966267903648,0.0,-0.5294364156765408,"(1e-05, 0.0, 0.0, 0.0, 1e-05, 0.0, 0.0, 0.0, 1e-05)",0.028710937500000002,0.095703125,9.78564453125,"(0.01, 0.0, 0.0, 0.0, 0.01, 0.0, 0.0, 0.0, 0.01)"
2025/07/11/14:09:39.865935,277,1752242979,865497536,imu_link,-0.024062423306461477,0.008052144932273258,0.8055933579656578,0.591925252331936,"(0.001, 0.0, 0.0, 0.0, 0.001, 0.0, 0.0, 0.0, 0.001)",-0.015978966267903648,-0.029827403700086803,-0.49321742546929254,"(1e-05, 0.0, 0.0, 0.0, 1e-05, 0.0, 0.0, 0.0, 1e-05)",0.028710937500000002,0.095703125,9.78564453125,"(0.01, 0.0, 0.0, 0.0, 0.01, 0.0, 0.0, 0.0, 0.01)"
2025/07/11/14:09:39.868997,278,1752242979,868509550,imu_link,-0.024062423306461477,0.008052144932273258,0.8055933579656578,0.591925252331936,"(0.001, 0.0, 0.0, 0.0, 0.001, 0.0, 0.0, 0.0, 0.001)",-0.015978966267903648,-0.029827403700086803,-0.49321742546929254,"(1e-05, 0.0, 0.0, 0.0, 1e-05, 0.0, 0.0, 0.0, 1e-05)",-0.6986328125000001,0.10527343750000001,9.8478515625,"(0.01, 0.0, 0.0, 0.0, 0.01, 0.0, 0.0, 0.0, 0.01)"
2025/07/11/14:09:39.919034,279,1752242979,918646468,imu_link,-0.02435472989133032,0.008827518922537046,0.7923099592388315,0.6095685773828519,"(0.001, 0.0, 0.0, 0.0, 0.001, 0.0, 0.0, 0.0, 0.001)",-0.01065264417860243,0.014913701850043402,-0.49321742546929254,"(1e-05, 0.0, 0.0, 0.0, 1e-05, 0.0, 0.0, 0.0, 1e-05)",-0.36845703125,-0.10527343750000001,10.077539062500001,"(0.01, 0.0, 0.0, 0.0, 0.01, 0.0, 0.0, 0.0, 0.01)"
2025/07/11/14:09:39.965994,280,1752242979,965493833,imu_link,-0.024091724993599947,0.008747749677155667,0.7788971060495578,0.6266277713683318,"(0.001, 0.0, 0.0, 0.0, 0.001, 0.0, 0.0, 0.0, 0.001)",-0.005326322089301215,-0.02663161044650608,-0.4804342524549696,"(1e-05, 0.0, 0.0, 0.0, 1e-05, 0.0, 0.0, 0.0, 1e-05)",-0.36845703125,-0.10527343750000001,10.077539062500001,"(0.01, 0.0, 0.0, 0.0, 0.01, 0.0, 0.0, 0.0, 0.01)"
2025/07/11/14:09:39.969437,281,1752242979,968990133,imu_link,-0.024091724993599947,0.008747749677155667,0.7788971060495578,0.6266277713683318,"(0.001, 0.0, 0.0, 0.0, 0.001, 0.0, 0.0, 0.0, 0.001)",-0.005326322089301215,-0.02663161044650608,-0.4804342524549696,"(1e-05, 0.0, 0.0, 0.0, 1e-05, 0.0, 0.0, 0.0, 1e-05)",-0.57421875,0.30625,9.747363281250001,"(0.01, 0.0, 0.0, 0.0, 0.01, 0.0, 0.0, 0.0, 0.01)"
2025/07/11/14:09:40.019620,282,1752242980,19142152,imu_link,-0.023618374348539292,0.009146830631027236,0.7653874620346419,0.6430711786751986,"(0.001, 0.0, 0.0, 0.0, 0.001, 0.0, 0.0, 0.0, 0.001)",-0.011717908596462675,0.002130528835720486,-0.47404266594780814,"(1e-05, 0.0, 0.0, 0.0, 1e-05, 0.0, 0.0, 0.0, 1e-05)",-0.31103515625,0.49287109375000004,9.59423828125,"(0.01, 0.0, 0.0, 0.0, 0.01, 0.0, 0.0, 0.0, 0.01)"
2025/07/11/14:09:40.065961,283,1752242980,65507062,imu_link,-0.0231525593402577,0.009145556130162602,0.7518206753781334,0.6588975564327381,"(0.001, 0.0, 0.0, 0.0, 0.001, 0.0, 0.0, 0.0, 0.001)",-0.03302319695366754,-0.019174759521484376,-0.4527373775906033,"(1e-05, 0.0, 0.0, 0.0, 1e-05, 0.0, 0.0, 0.0, 1e-05)",-0.31103515625,0.49287109375000004,9.59423828125,"(0.01, 0.0, 0.0, 0.0, 0.01, 0.0, 0.0, 0.0, 0.01)"
2025/07/11/14:09:40.069736,284,1752242980,69344705,imu_link,-0.0231525593402577,0.009145556130162602,0.7518206753781334,0.6588975564327381,"(0.001, 0.0, 0.0, 0.0, 0.001, 0.0, 0.0, 0.0, 0.001)",-0.03302319695366754,-0.019174759521484376,-0.4527373775906033,"(1e-05, 0.0, 0.0, 0.0, 1e-05, 0.0, 0.0, 0.0, 1e-05)",-0.4498046875,0.287109375,9.6181640625,"(0.01, 0.0, 0.0, 0.0, 0.01, 0.0, 0.0, 0.0, 0.01)"
2025/07/11/14:09:40.120104,285,1752242980,119681087,imu_link,-0.023657089415411326,0.009206190923240092,0.7383754446763077,0.6739119310919945,"(0.001, 0.0, 0.0, 0.0, 0.001, 0.0, 0.0, 0.0, 0.001)",-0.02343581719292535,0.05965480740017361,-0.4463457910834419,"(1e-05, 0.0, 0.0, 0.0, 1e-05, 0.0, 0.0, 0.0, 1e-05)",-0.0765625,-0.033496093750000004,9.886132812500001,"(0.01, 0.0, 0.0, 0.0, 0.01, 0.0, 0.0, 0.0, 0.01)"
2025/07/11/14:09:40.165919,286,1752242980,165488143,imu_link,-0.023926985939710134,0.008982936945935854,0.7248986628981213,0.6883812422750797,"(0.001, 0.0, 0.0, 0.0, 0.001, 0.0, 0.0, 0.0, 0.001)",0.0,0.04900216322157118,-0.4388889401584201,"(1e-05, 0.0, 0.0, 0.0, 1e-05, 0.0, 0.0, 0.0, 1e-05)",-0.0765625,-0.033496093750000004,9.886132812500001,"(0.01, 0.0, 0.0, 0.0, 0.01, 0.0, 0.0, 0.0, 0.01)"
2025/07/11/14:09:40.170277,287,1752242980,169892289,imu_link,-0.023926985939710134,0.008982936945935854,0.7248986628981213,0.6883812422750797,"(0.001, 0.0, 0.0, 0.0, 0.001, 0.0, 0.0, 0.0, 0.001)",0.0,0.04900216322157118,-0.4388889401584201,"(1e-05, 0.0, 0.0, 0.0, 1e-05, 0.0, 0.0, 0.0, 1e-05)",0.2009765625,-0.33974609375000003,9.953125,"(0.01, 0.0, 0.0, 0.0, 0.01, 0.0, 0.0, 0.0, 0.01)"
2025/07/11/14:09:40.220536,288,1752242980,220148789,imu_link,-0.02418703490120329,0.009136825679241473,0.711435999179511,0.7022751062302052,"(0.001, 0.0, 0.0, 0.0, 0.001, 0.0, 0.0, 0.0, 0.001)",0.006391586507161458,0.0692421871609158,-0.4154531229654948,"(1e-05, 0.0, 0.0, 0.0, 1e-05, 0.0, 0.0, 0.0, 1e-05)",-0.6603515625,0.36367187500000003,9.88134765625,"(0.01, 0.0, 0.0, 0.0, 0.01, 0.0, 0.0, 0.0, 0.01)"
2025/07/11/14:09:40.265954,289,1752242980,265500031,imu_link,-0.02438081183131702,0.00989705071349034,0.6981792179696329,0.7154393083951514,"(0.001, 0.0, 0.0, 0.0, 0.001, 0.0, 0.0, 0.0, 0.001)",0.03728425462510851,0.047936898803710944,-0.385625719265408,"(1e-05, 0.0, 0.0, 0.0, 1e-05, 0.0, 0.0, 0.0, 1e-05)",-0.6603515625,0.36367187500000003,9.88134765625,"(0.01, 0.0, 0.0, 0.0, 0.01, 0.0, 0.0, 0.0, 0.01)"
2025/07/11/14:09:40.270766,290,1752242980,270396570,imu_link,-0.02438081183131702,0.00989705071349034,0.6981792179696329,0.7154393083951514,"(0.001, 0.0, 0.0, 0.0, 0.001, 0.0, 0.0, 0.0, 0.001)",0.03728425462510851,0.047936898803710944,-0.385625719265408,"(1e-05, 0.0, 0.0, 0.0, 1e-05, 0.0, 0.0, 0.0, 1e-05)",-0.15791015625000002,0.14833984375,9.7521484375,"(0.01, 0.0, 0.0, 0.0, 0.01, 0.0, 0.0, 0.0, 0.01)"
2025/07/11/14:09:40.321078,291,1752242980,320674566,imu_link,-0.024208071548818946,0.010123476885437983,0.685418179878625,0.7276767161174736,"(0.001, 0.0, 0.0, 0.0, 0.001, 0.0, 0.0, 0.0, 0.001)",-0.008522115342881944,0.05006742763943142,-0.3408846137152778,"(1e-05, 0.0, 0.0, 0.0, 1e-05, 0.0, 0.0, 0.0, 1e-05)",-0.6316406250000001,0.27753906250000004,9.819140625000001,"(0.01, 0.0, 0.0, 0.0, 0.01, 0.0, 0.0, 0.0, 0.01)"
2025/07/11/14:09:40.365823,292,1752242980,365471661,imu_link,-0.024295990242539336,0.01074404453392178,0.6731111016014388,0.7390640806222994,"(0.001, 0.0, 0.0, 0.0, 0.001, 0.0, 0.0, 0.0, 0.001)",-0.019174759521484376,0.006391586507161458,-0.32277511861165364,"(1e-05, 0.0, 0.0, 0.0, 1e-05, 0.0, 0.0, 0.0, 1e-05)",-0.6316406250000001,0.27753906250000004,9.819140625000001,"(0.01, 0.0, 0.0, 0.0, 0.01, 0.0, 0.0, 0.0, 0.01)"
2025/07/11/14:09:40.371165,293,1752242980,370770088,imu_link,-0.024295990242539336,0.01074404453392178,0.6731111016014388,0.7390640806222994,"(0.001, 0.0, 0.0, 0.0, 0.001, 0.0, 0.0, 0.0, 0.001)",-0.019174759521484376,0.006391586507161458,-0.32277511861165364,"(1e-05, 0.0, 0.0, 0.0, 1e-05, 0.0, 0.0, 0.0, 1e-05)",0.22968750000000002,-0.33017578125,10.173242187500001,"(0.01, 0.0, 0.0, 0.0, 0.01, 0.0, 0.0, 0.0, 0.01)"
2025/07/11/14:09:40.421739,294,1752242980,421185481,imu_link,-0.023597623505956362,0.010767214502385833,0.6609439330686766,0.7499868909497281,"(0.001, 0.0, 0.0, 0.0, 0.001, 0.0, 0.0, 0.0, 0.001)",0.003195793253580729,-0.017044230685763887,-0.32597091186523436,"(1e-05, 0.0, 0.0, 0.0, 1e-05, 0.0, 0.0, 0.0, 1e-05)",0.07177734375,0.2009765625,9.814355468750001,"(0.01, 0.0, 0.0, 0.0, 0.01, 0.0, 0.0, 0.0, 0.01)"
2025/07/11/14:09:40.465925,295,1752242980,465496026,imu_link,-0.022796600129523142,0.011244696957495262,0.6483742815578646,0.7608972748191387,"(0.001, 0.0, 0.0, 0.0, 0.001, 0.0, 0.0, 0.0, 0.001)",0.025566346028645832,0.02130528835720486,-0.35792884440104167,"(1e-05, 0.0, 0.0, 0.0, 1e-05, 0.0, 0.0, 0.0, 1e-05)",0.07177734375,0.2009765625,9.814355468750001,"(0.01, 0.0, 0.0, 0.0, 0.01, 0.0, 0.0, 0.0, 0.01)"
2025/07/11/14:09:40.471880,296,1752242980,471406313,imu_link,-0.022796600129523142,0.011244696957495262,0.6483742815578646,0.7608972748191387,"(0.001, 0.0, 0.0, 0.0, 0.001, 0.0, 0.0, 0.0, 0.001)",0.025566346028645832,0.02130528835720486,-0.35792884440104167,"(1e-05, 0.0, 0.0, 0.0, 1e-05, 0.0, 0.0, 0.0, 1e-05)",-0.2966796875,0.28232421875,9.4650390625,"(0.01, 0.0, 0.0, 0.0, 0.01, 0.0, 0.0, 0.0, 0.01)"
2025/07/11/14:09:40.522033,297,1752242980,521640324,imu_link,-0.022225532965825297,0.011632925274924672,0.6351827264533096,0.771954405874643,"(0.001, 0.0, 0.0, 0.0, 0.001, 0.0, 0.0, 0.0, 0.001)",-0.004261057671440972,0.017044230685763887,-0.3749730750868056,"(1e-05, 0.0, 0.0, 0.0, 1e-05, 0.0, 0.0, 0.0, 1e-05)",-0.6316406250000001,0.57421875,9.6564453125,"(0.01, 0.0, 0.0, 0.0, 0.01, 0.0, 0.0, 0.0, 0.01)"
2025/07/11/14:09:40.565924,298,1752242980,565525652,imu_link,-0.02217860748461314,0.012187536819379285,0.6222905515655305,0.7823771742251863,"(0.001, 0.0, 0.0, 0.0, 0.001, 0.0, 0.0, 0.0, 0.001)",0.051132692057291665,0.0916127399359809,-0.3536677867296007,"(1e-05, 0.0, 0.0, 0.0, 1e-05, 0.0, 0.0, 0.0, 1e-05)",-0.6316406250000001,0.57421875,9.6564453125,"(0.01, 0.0, 0.0, 0.0, 0.01, 0.0, 0.0, 0.0, 0.01)"
2025/07/11/14:09:40.572240,299,1752242980,571861147,imu_link,-0.02217860748461314,0.012187536819379285,0.6222905515655305,0.7823771742251863,"(0.001, 0.0, 0.0, 0.0, 0.001, 0.0, 0.0, 0.0, 0.001)",0.051132692057291665,0.0916127399359809,-0.3536677867296007,"(1e-05, 0.0, 0.0, 0.0, 1e-05, 0.0, 0.0, 0.0, 1e-05)",-0.2201171875,-0.10527343750000001,10.06796875,"(0.01, 0.0, 0.0, 0.0, 0.01, 0.0, 0.0, 0.0, 0.01)"
2025/07/11/14:09:40.622612,300,1752242980,622135054,imu_link,-0.02170781129396416,0.012268439454541724,0.6096106398861512,0.792308730268557,"(0.001, 0.0, 0.0, 0.0, 0.001, 0.0, 0.0, 0.0, 0.001)",0.001065264417860243,-0.011717908596462675,-0.32277511861165364,"(1e-05, 0.0, 0.0, 0.0, 1e-05, 0.0, 0.0, 0.0, 1e-05)",-0.6507812500000001,0.37324218750000004,9.6564453125,"(0.01, 0.0, 0.0, 0.0, 0.01, 0.0, 0.0, 0.0, 0.01)"
2025/07/11/14:09:40.665946,301,1752242980,665495639,imu_link,-0.0210914909889904,0.01273228562055346,0.5977651166867193,0.8012926451573426,"(0.001, 0.0, 0.0, 0.0, 0.001, 0.0, 0.0, 0.0, 0.001)",0.018109495103624133,0.02663161044650608,-0.26951189771864154,"(1e-05, 0.0, 0.0, 0.0, 1e-05, 0.0, 0.0, 0.0, 1e-05)",-0.6507812500000001,0.37324218750000004,9.6564453125,"(0.01, 0.0, 0.0, 0.0, 0.01, 0.0, 0.0, 0.0, 0.01)"
2025/07/11/14:09:40.672897,302,1752242980,672380780,imu_link,-0.0210914909889904,0.01273228562055346,0.5977651166867193,0.8012926451573426,"(0.001, 0.0, 0.0, 0.0, 0.001, 0.0, 0.0, 0.0, 0.001)",0.018109495103624133,0.02663161044650608,-0.26951189771864154,"(1e-05, 0.0, 0.0, 0.0, 1e-05, 0.0, 0.0, 0.0, 1e-05)",-0.7177734375,0.46894531250000004,9.6564453125,"(0.01, 0.0, 0.0, 0.0, 0.01, 0.0, 0.0, 0.0, 0.01)"
2025/07/11/14:09:40.723075,303,1752242980,722605932,imu_link,-0.020926888519797023,0.012951298643633896,0.5868020988484612,0.8093563034828135,"(0.001, 0.0, 0.0, 0.0, 0.001, 0.0, 0.0, 0.0, 0.001)",-0.003195793253580729,0.01384843743218316,-0.22157499891493057,"(1e-05, 0.0, 0.0, 0.0, 1e-05, 0.0, 0.0, 0.0, 1e-05)",-0.8469726562500001,0.7177734375,9.8095703125,"(0.01, 0.0, 0.0, 0.0, 0.01, 0.0, 0.0, 0.0, 0.01)"
2025/07/11/14:09:40.766026,304,1752242980,765530506,imu_link,-0.020464092546506885,0.013133746785466239,0.5763548783786911,0.8168376703976792,"(0.001, 0.0, 0.0, 0.0, 0.001, 0.0, 0.0, 0.0, 0.001)",0.008522115342881944,0.02343581719292535,-0.2098570903184679,"(1e-05, 0.0, 0.0, 0.0, 1e-05, 0.0, 0.0, 0.0, 1e-05)",-0.8469726562500001,0.7177734375,9.8095703125,"(0.01, 0.0, 0.0, 0.0, 0.01, 0.0, 0.0, 0.0, 0.01)"
2025/07/11/14:09:40.773287,305,1752242980,772853262,imu_link,-0.020464092546506885,0.013133746785466239,0.5763548783786911,0.8168376703976792,"(0.001, 0.0, 0.0, 0.0, 0.001, 0.0, 0.0, 0.0, 0.001)",0.008522115342881944,0.02343581719292535,-0.2098570903184679,"(1e-05, 0.0, 0.0, 0.0, 1e-05, 0.0, 0.0, 0.0, 1e-05)",-0.36845703125,0.33974609375000003,9.589453125,"(0.01, 0.0, 0.0, 0.0, 0.01, 0.0, 0.0, 0.0, 0.01)"
2025/07/11/14:09:40.823716,306,1752242980,823232266,imu_link,-0.02009608048845879,0.013002164010557265,0.5662509515501907,0.8238852779049687,"(0.001, 0.0, 0.0, 0.0, 0.001, 0.0, 0.0, 0.0, 0.001)",0.003195793253580729,0.03834951904296875,-0.19813918172200523,"(1e-05, 0.0, 0.0, 0.0, 1e-05, 0.0, 0.0, 0.0, 1e-05)",-0.07177734375,0.40673828125000006,9.431542968750001,"(0.01, 0.0, 0.0, 0.0, 0.01, 0.0, 0.0, 0.0, 0.01)"
2025/07/11/14:09:40.865966,307,1752242980,865520406,imu_link,-0.019925006872676412,0.012962913575169566,0.5563398668297838,0.8306147780701864,"(0.001, 0.0, 0.0, 0.0, 0.001, 0.0, 0.0, 0.0, 0.001)",-0.019174759521484376,0.035153725789388024,-0.19707391730414497,"(1e-05, 0.0, 0.0, 0.0, 1e-05, 0.0, 0.0, 0.0, 1e-05)",-0.07177734375,0.40673828125000006,9.431542968750001,"(0.01, 0.0, 0.0, 0.0, 0.01, 0.0, 0.0, 0.0, 0.01)"
2025/07/11/14:09:40.873805,308,1752242980,873372515,imu_link,-0.019925006872676412,0.012962913575169566,0.5563398668297838,0.8306147780701864,"(0.001, 0.0, 0.0, 0.0, 0.001, 0.0, 0.0, 0.0, 0.001)",-0.019174759521484376,0.035153725789388024,-0.19707391730414497,"(1e-05, 0.0, 0.0, 0.0, 1e-05, 0.0, 0.0, 0.0, 1e-05)",-0.56943359375,0.13398437500000002,9.76171875,"(0.01, 0.0, 0.0, 0.0, 0.01, 0.0, 0.0, 0.0, 0.01)"
2025/07/11/14:09:40.924209,309,1752242980,923661124,imu_link,-0.020313278464443696,0.013245088268506195,0.5463903671833853,0.8371794938984058,"(0.001, 0.0, 0.0, 0.0, 0.001, 0.0, 0.0, 0.0, 0.001)",-0.025566346028645832,0.03089266811794705,-0.19707391730414497,"(1e-05, 0.0, 0.0, 0.0, 1e-05, 0.0, 0.0, 0.0, 1e-05)",-0.37802734375,0.19140625,9.92919921875,"(0.01, 0.0, 0.0, 0.0, 0.01, 0.0, 0.0, 0.0, 0.01)"
2025/07/11/14:09:40.965984,310,1752242980,965523876,imu_link,-0.01990183645662938,0.012907385131577782,0.5364431590367296,0.8436030188645681,"(0.001, 0.0, 0.0, 0.0, 0.001, 0.0, 0.0, 0.0, 0.001)",0.02024002393934462,0.011717908596462675,-0.18642127312554252,"(1e-05, 0.0, 0.0, 0.0, 1e-05, 0.0, 0.0, 0.0, 1e-05)",-0.37802734375,0.19140625,9.92919921875,"(0.01, 0.0, 0.0, 0.0, 0.01, 0.0, 0.0, 0.0, 0.01)"
2025/07/11/14:09:40.974399,311,1752242980,973959584,imu_link,-0.01990183645662938,0.012907385131577782,0.5364431590367296,0.8436030188645681,"(0.001, 0.0, 0.0, 0.0, 0.001, 0.0, 0.0, 0.0, 0.001)",0.02024002393934462,0.011717908596462675,-0.18642127312554252,"(1e-05, 0.0, 0.0, 0.0, 1e-05, 0.0, 0.0, 0.0, 1e-05)",-0.7034179687500001,0.47373046875,9.76171875,"(0.01, 0.0, 0.0, 0.0, 0.01, 0.0, 0.0, 0.0, 0.01)"
2025/07/11/14:09:41.024560,312,1752242981,24135233,imu_link,-0.01913097301580552,0.012673075533201877,0.5268229100979733,0.8496652402116385,"(0.001, 0.0, 0.0, 0.0, 0.001, 0.0, 0.0, 0.0, 0.001)",-0.029827403700086803,-0.056459014146592885,-0.15659386942545575,"(1e-05, 0.0, 0.0, 0.0, 1e-05, 0.0, 0.0, 0.0, 1e-05)",-0.5263671875,0.31103515625,9.666015625,"(0.01, 0.0, 0.0, 0.0, 0.01, 0.0, 0.0, 0.0, 0.01)"
2025/07/11/14:09:41.065843,313,1752242981,65507919,imu_link,-0.01823944427096872,0.012828660259041879,0.5177852923816911,0.8552199361227796,"(0.001, 0.0, 0.0, 0.0, 0.001, 0.0, 0.0, 0.0, 0.001)",0.005326322089301215,-0.009587379760742188,-0.1512675473361545,"(1e-05, 0.0, 0.0, 0.0, 1e-05, 0.0, 0.0, 0.0, 1e-05)",-0.5263671875,0.31103515625,9.666015625,"(0.01, 0.0, 0.0, 0.0, 0.01, 0.0, 0.0, 0.0, 0.01)"
2025/07/11/14:09:41.074796,314,1752242981,74398140,imu_link,-0.01823944427096872,0.012828660259041879,0.5177852923816911,0.8552199361227796,"(0.001, 0.0, 0.0, 0.0, 0.001, 0.0, 0.0, 0.0, 0.001)",0.005326322089301215,-0.009587379760742188,-0.1512675473361545,"(1e-05, 0.0, 0.0, 0.0, 1e-05, 0.0, 0.0, 0.0, 1e-05)",-0.0095703125,0.172265625,9.8287109375,"(0.01, 0.0, 0.0, 0.0, 0.01, 0.0, 0.0, 0.0, 0.01)"
2025/07/11/14:09:41.125096,315,1752242981,124639411,imu_link,-0.017218700793507374,0.012651876024998829,0.5087733772820924,0.8606352868346763,"(0.001, 0.0, 0.0, 0.0, 0.001, 0.0, 0.0, 0.0, 0.001)",0.03621899020724827,0.003195793253580729,-0.1555286050075955,"(1e-05, 0.0, 0.0, 0.0, 1e-05, 0.0, 0.0, 0.0, 1e-05)",0.7177734375,-0.6890625,9.99140625,"(0.01, 0.0, 0.0, 0.0, 0.01, 0.0, 0.0, 0.0, 0.01)"
2025/07/11/14:09:41.165885,316,1752242981,165506946,imu_link,-0.016069230239731624,0.012697890256541257,0.4997847341829524,0.8659074794111731,"(0.001, 0.0, 0.0, 0.0, 0.001, 0.0, 0.0, 0.0, 0.001)",0.05965480740017361,0.03834951904296875,-0.16724651360405815,"(1e-05, 0.0, 0.0, 0.0, 1e-05, 0.0, 0.0, 0.0, 1e-05)",0.7177734375,-0.6890625,9.99140625,"(0.01, 0.0, 0.0, 0.0, 0.01, 0.0, 0.0, 0.0, 0.01)"
2025/07/11/14:09:41.175239,317,1752242981,174889510,imu_link,-0.016069230239731624,0.012697890256541257,0.4997847341829524,0.8659074794111731,"(0.001, 0.0, 0.0, 0.0, 0.001, 0.0, 0.0, 0.0, 0.001)",0.05965480740017361,0.03834951904296875,-0.16724651360405815,"(1e-05, 0.0, 0.0, 0.0, 1e-05, 0.0, 0.0, 0.0, 1e-05)",-0.401953125,0.54072265625,9.6373046875,"(0.01, 0.0, 0.0, 0.0, 0.01, 0.0, 0.0, 0.0, 0.01)"
2025/07/11/14:09:41.225566,318,1752242981,225150383,imu_link,-0.014890432689955217,0.013454615804020359,0.49060937631129836,0.871148488033648,"(0.001, 0.0, 0.0, 0.0, 0.001, 0.0, 0.0, 0.0, 0.001)",0.04900216322157118,0.002130528835720486,-0.1832254798719618,"(1e-05, 0.0, 0.0, 0.0, 1e-05, 0.0, 0.0, 0.0, 1e-05)",-0.5311523437500001,1.0431640625,9.316699218750001,"(0.01, 0.0, 0.0, 0.0, 0.01, 0.0, 0.0, 0.0, 0.01)"
2025/07/11/14:09:41.265867,319,1752242981,265500913,imu_link,-0.014138989634928698,0.013398473575936086,0.4813909512782392,0.8762895194542558,"(0.001, 0.0, 0.0, 0.0, 0.001, 0.0, 0.0, 0.0, 0.001)",0.005326322089301215,0.058589542982313364,-0.17683389336480035,"(1e-05, 0.0, 0.0, 0.0, 1e-05, 0.0, 0.0, 0.0, 1e-05)",-0.5311523437500001,1.0431640625,9.316699218750001,"(0.01, 0.0, 0.0, 0.0, 0.01, 0.0, 0.0, 0.0, 0.01)"
2025/07/11/14:09:41.275880,320,1752242981,275497752,imu_link,-0.014138989634928698,0.013398473575936086,0.4813909512782392,0.8762895194542558,"(0.001, 0.0, 0.0, 0.0, 0.001, 0.0, 0.0, 0.0, 0.001)",0.005326322089301215,0.058589542982313364,-0.17683389336480035,"(1e-05, 0.0, 0.0, 0.0, 1e-05, 0.0, 0.0, 0.0, 1e-05)",-0.7273437500000001,0.30146484375000004,9.780859375,"(0.01, 0.0, 0.0, 0.0, 0.01, 0.0, 0.0, 0.0, 0.01)"
2025/07/11/14:09:41.326122,321,1752242981,325701712,imu_link,-0.014479102562936162,0.013610274409258792,0.47267624672444014,0.8810120781249102,"(0.001, 0.0, 0.0, 0.0, 0.001, 0.0, 0.0, 0.0, 0.001)",-0.07882956692165799,-0.017044230685763887,-0.13315805223253038,"(1e-05, 0.0, 0.0, 0.0, 1e-05, 0.0, 0.0, 0.0, 1e-05)",-0.49287109375000004,0.3541015625,10.0009765625,"(0.01, 0.0, 0.0, 0.0, 0.01, 0.0, 0.0, 0.0, 0.01)"
2025/07/11/14:09:41.365858,322,1752242981,365513780,imu_link,-0.014245820139643959,0.013526637554781108,0.4648029691544296,0.8851961853455068,"(0.001, 0.0, 0.0, 0.0, 0.001, 0.0, 0.0, 0.0, 0.001)",-0.009587379760742188,0.005326322089301215,-0.11291802829318577,"(1e-05, 0.0, 0.0, 0.0, 1e-05, 0.0, 0.0, 0.0, 1e-05)",-0.49287109375000004,0.3541015625,10.0009765625,"(0.01, 0.0, 0.0, 0.0, 0.01, 0.0, 0.0, 0.0, 0.01)"
