time,.header.seq,.header.stamp.secs,.header.stamp.nsecs,.header.frame_id,.orientation.x,.orientation.y,.orientation.z,.orientation.w,.orientation_covariance,.angular_velocity.x,.angular_velocity.y,.angular_velocity.z,.angular_velocity_covariance,.linear_acceleration.x,.linear_acceleration.y,.linear_acceleration.z,.linear_acceleration_covariance
2025/07/11/14:10:31.180616,7,1752243031,180158403,imu_link,0.0037382894647119544,-0.008488944669065605,-0.9678964870183554,0.2511779318089271,"(0.001, 0.0, 0.0, 0.0, 0.001, 0.0, 0.0, 0.0, 0.001)",0.0,0.0,0.0,"(1e-05, 0.0, 0.0, 0.0, 1e-05, 0.0, 0.0, 0.0, 1e-05)",-0.028710937500000002,0.16748046875,9.8095703125,"(0.01, 0.0, 0.0, 0.0, 0.01, 0.0, 0.0, 0.0, 0.01)"
2025/07/11/14:10:31.212671,8,1752243031,212321063,imu_link,0.0037382894647119544,-0.008488944669065605,-0.9678964870183554,0.2511779318089271,"(0.001, 0.0, 0.0, 0.0, 0.001, 0.0, 0.0, 0.0, 0.001)",0.0,0.0,0.0,"(1e-05, 0.0, 0.0, 0.0, 1e-05, 0.0, 0.0, 0.0, 1e-05)",-0.028710937500000002,0.16748046875,9.8095703125,"(0.01, 0.0, 0.0, 0.0, 0.01, 0.0, 0.0, 0.0, 0.01)"
2025/07/11/14:10:31.230834,9,1752243031,230451904,imu_link,0.0037382894647119544,-0.008488944669065605,-0.9678964870183554,0.2511779318089271,"(0.001, 0.0, 0.0, 0.0, 0.001, 0.0, 0.0, 0.0, 0.001)",0.0,0.0,0.0,"(1e-05, 0.0, 0.0, 0.0, 1e-05, 0.0, 0.0, 0.0, 1e-05)",-0.033496093750000004,0.16269531250000002,9.8095703125,"(0.01, 0.0, 0.0, 0.0, 0.01, 0.0, 0.0, 0.0, 0.01)"
2025/07/11/14:10:31.281188,10,1752243031,280709168,imu_link,0.0037382894647119544,-0.008488944669065605,-0.9678964870183554,0.2511779318089271,"(0.001, 0.0, 0.0, 0.0, 0.001, 0.0, 0.0, 0.0, 0.001)",0.0,0.0,0.0,"(1e-05, 0.0, 0.0, 0.0, 1e-05, 0.0, 0.0, 0.0, 1e-05)",-0.033496093750000004,0.16269531250000002,9.8095703125,"(0.01, 0.0, 0.0, 0.0, 0.01, 0.0, 0.0, 0.0, 0.01)"
2025/07/11/14:10:31.312806,11,1752243031,312331034,imu_link,0.0037382894647119544,-0.008488944669065605,-0.9678964870183554,0.2511779318089271,"(0.001, 0.0, 0.0, 0.0, 0.001, 0.0, 0.0, 0.0, 0.001)",0.0,0.0,0.0,"(1e-05, 0.0, 0.0, 0.0, 1e-05, 0.0, 0.0, 0.0, 1e-05)",-0.033496093750000004,0.16269531250000002,9.8095703125,"(0.01, 0.0, 0.0, 0.0, 0.01, 0.0, 0.0, 0.0, 0.01)"
2025/07/11/14:10:31.331423,12,1752243031,330988199,imu_link,0.0037382894647119544,-0.008488944669065605,-0.9678964870183554,0.2511779318089271,"(0.001, 0.0, 0.0, 0.0, 0.001, 0.0, 0.0, 0.0, 0.001)",0.0,0.0,0.0,"(1e-05, 0.0, 0.0, 0.0, 1e-05, 0.0, 0.0, 0.0, 1e-05)",-0.02392578125,0.16748046875,9.8095703125,"(0.01, 0.0, 0.0, 0.0, 0.01, 0.0, 0.0, 0.0, 0.01)"
2025/07/11/14:10:31.381943,13,1752243031,381454024,imu_link,0.0037382894647119544,-0.008488944669065605,-0.9678964870183554,0.2511779318089271,"(0.001, 0.0, 0.0, 0.0, 0.001, 0.0, 0.0, 0.0, 0.001)",0.0,0.0,0.0,"(1e-05, 0.0, 0.0, 0.0, 1e-05, 0.0, 0.0, 0.0, 1e-05)",-0.028710937500000002,0.16748046875,9.8095703125,"(0.01, 0.0, 0.0, 0.0, 0.01, 0.0, 0.0, 0.0, 0.01)"
2025/07/11/14:10:31.413017,14,1752243031,412555298,imu_link,0.0037382894647119544,-0.008488944669065605,-0.9678964870183554,0.2511779318089271,"(0.001, 0.0, 0.0, 0.0, 0.001, 0.0, 0.0, 0.0, 0.001)",0.0,0.0,0.0,"(1e-05, 0.0, 0.0, 0.0, 1e-05, 0.0, 0.0, 0.0, 1e-05)",-0.028710937500000002,0.16748046875,9.8095703125,"(0.01, 0.0, 0.0, 0.0, 0.01, 0.0, 0.0, 0.0, 0.01)"
2025/07/11/14:10:31.432009,15,1752243031,431551831,imu_link,0.0037382894647119544,-0.008488944669065605,-0.9678964870183554,0.2511779318089271,"(0.001, 0.0, 0.0, 0.0, 0.001, 0.0, 0.0, 0.0, 0.001)",0.0,0.0,0.0,"(1e-05, 0.0, 0.0, 0.0, 1e-05, 0.0, 0.0, 0.0, 1e-05)",-0.028710937500000002,0.16269531250000002,9.8095703125,"(0.01, 0.0, 0.0, 0.0, 0.01, 0.0, 0.0, 0.0, 0.01)"
2025/07/11/14:10:31.482454,16,1752243031,481960526,imu_link,0.0037382894647119544,-0.008488944669065605,-0.9678964870183554,0.2511779318089271,"(0.001, 0.0, 0.0, 0.0, 0.001, 0.0, 0.0, 0.0, 0.001)",0.0,0.0,0.0,"(1e-05, 0.0, 0.0, 0.0, 1e-05, 0.0, 0.0, 0.0, 1e-05)",-0.033496093750000004,0.16269531250000002,9.814355468750001,"(0.01, 0.0, 0.0, 0.0, 0.01, 0.0, 0.0, 0.0, 0.01)"
2025/07/11/14:10:31.512881,17,1752243031,512372371,imu_link,0.0037382894647119544,-0.008488944669065605,-0.9678964870183554,0.2511779318089271,"(0.001, 0.0, 0.0, 0.0, 0.001, 0.0, 0.0, 0.0, 0.001)",0.0,0.0,0.0,"(1e-05, 0.0, 0.0, 0.0, 1e-05, 0.0, 0.0, 0.0, 1e-05)",-0.033496093750000004,0.16269531250000002,9.814355468750001,"(0.01, 0.0, 0.0, 0.0, 0.01, 0.0, 0.0, 0.0, 0.01)"
2025/07/11/14:10:31.532496,18,1752243031,532058543,imu_link,0.0037382894647119544,-0.008488944669065605,-0.9678964870183554,0.2511779318089271,"(0.001, 0.0, 0.0, 0.0, 0.001, 0.0, 0.0, 0.0, 0.001)",0.0,0.0,0.0,"(1e-05, 0.0, 0.0, 0.0, 1e-05, 0.0, 0.0, 0.0, 1e-05)",-0.028710937500000002,0.16269531250000002,9.8095703125,"(0.01, 0.0, 0.0, 0.0, 0.01, 0.0, 0.0, 0.0, 0.01)"
2025/07/11/14:10:31.582553,19,1752243031,582212229,imu_link,0.0037382894647119544,-0.008488944669065605,-0.9678964870183554,0.2511779318089271,"(0.001, 0.0, 0.0, 0.0, 0.001, 0.0, 0.0, 0.0, 0.001)",0.0,0.0,0.0,"(1e-05, 0.0, 0.0, 0.0, 1e-05, 0.0, 0.0, 0.0, 1e-05)",-0.02392578125,0.16748046875,9.8095703125,"(0.01, 0.0, 0.0, 0.0, 0.01, 0.0, 0.0, 0.0, 0.01)"
2025/07/11/14:10:31.612705,20,1752243031,612334611,imu_link,0.0037382894647119544,-0.008488944669065605,-0.9678964870183554,0.2511779318089271,"(0.001, 0.0, 0.0, 0.0, 0.001, 0.0, 0.0, 0.0, 0.001)",0.0,0.0,0.0,"(1e-05, 0.0, 0.0, 0.0, 1e-05, 0.0, 0.0, 0.0, 1e-05)",-0.02392578125,0.16748046875,9.8095703125,"(0.01, 0.0, 0.0, 0.0, 0.01, 0.0, 0.0, 0.0, 0.01)"
2025/07/11/14:10:31.632787,21,1752243031,632411239,imu_link,0.0037382894647119544,-0.008488944669065605,-0.9678964870183554,0.2511779318089271,"(0.001, 0.0, 0.0, 0.0, 0.001, 0.0, 0.0, 0.0, 0.001)",0.0,0.0,0.0,"(1e-05, 0.0, 0.0, 0.0, 1e-05, 0.0, 0.0, 0.0, 1e-05)",-0.028710937500000002,0.16748046875,9.8095703125,"(0.01, 0.0, 0.0, 0.0, 0.01, 0.0, 0.0, 0.0, 0.01)"
2025/07/11/14:10:31.682916,22,1752243031,682600580,imu_link,0.0037382894647119544,-0.008488944669065605,-0.9678964870183554,0.2511779318089271,"(0.001, 0.0, 0.0, 0.0, 0.001, 0.0, 0.0, 0.0, 0.001)",0.0,0.0,0.0,"(1e-05, 0.0, 0.0, 0.0, 1e-05, 0.0, 0.0, 0.0, 1e-05)",-0.028710937500000002,0.16269531250000002,9.8095703125,"(0.01, 0.0, 0.0, 0.0, 0.01, 0.0, 0.0, 0.0, 0.01)"
2025/07/11/14:10:31.712606,23,1752243031,712303184,imu_link,0.0037382894647119544,-0.008488944669065605,-0.9678964870183554,0.2511779318089271,"(0.001, 0.0, 0.0, 0.0, 0.001, 0.0, 0.0, 0.0, 0.001)",0.0,0.0,0.0,"(1e-05, 0.0, 0.0, 0.0, 1e-05, 0.0, 0.0, 0.0, 1e-05)",-0.028710937500000002,0.16269531250000002,9.8095703125,"(0.01, 0.0, 0.0, 0.0, 0.01, 0.0, 0.0, 0.0, 0.01)"
2025/07/11/14:10:31.733284,24,1752243031,732921940,imu_link,0.0037382894647119544,-0.008488944669065605,-0.9678964870183554,0.2511779318089271,"(0.001, 0.0, 0.0, 0.0, 0.001, 0.0, 0.0, 0.0, 0.001)",0.0,0.0,0.0,"(1e-05, 0.0, 0.0, 0.0, 1e-05, 0.0, 0.0, 0.0, 1e-05)",-0.033496093750000004,0.16269531250000002,9.8095703125,"(0.01, 0.0, 0.0, 0.0, 0.01, 0.0, 0.0, 0.0, 0.01)"
2025/07/11/14:10:31.784004,25,1752243031,783547674,imu_link,0.0037382894647119544,-0.008488944669065605,-0.9678964870183554,0.2511779318089271,"(0.001, 0.0, 0.0, 0.0, 0.001, 0.0, 0.0, 0.0, 0.001)",0.0,0.0,0.0,"(1e-05, 0.0, 0.0, 0.0, 1e-05, 0.0, 0.0, 0.0, 1e-05)",-0.02392578125,0.16748046875,9.8095703125,"(0.01, 0.0, 0.0, 0.0, 0.01, 0.0, 0.0, 0.0, 0.01)"
2025/07/11/14:10:31.812767,26,1752243031,812350615,imu_link,0.003737882526735364,-0.008489123861315737,-0.9679085265973627,0.2511315335643975,"(0.001, 0.0, 0.0, 0.0, 0.001, 0.0, 0.0, 0.0, 0.001)",0.0,0.0,0.0,"(1e-05, 0.0, 0.0, 0.0, 1e-05, 0.0, 0.0, 0.0, 1e-05)",-0.02392578125,0.16748046875,9.8095703125,"(0.01, 0.0, 0.0, 0.0, 0.01, 0.0, 0.0, 0.0, 0.01)"
2025/07/11/14:10:31.834221,27,1752243031,833673821,imu_link,0.003737882526735364,-0.008489123861315737,-0.9679085265973627,0.2511315335643975,"(0.001, 0.0, 0.0, 0.0, 0.001, 0.0, 0.0, 0.0, 0.001)",0.0,0.0,0.0,"(1e-05, 0.0, 0.0, 0.0, 1e-05, 0.0, 0.0, 0.0, 1e-05)",-0.028710937500000002,0.16748046875,9.8095703125,"(0.01, 0.0, 0.0, 0.0, 0.01, 0.0, 0.0, 0.0, 0.01)"
2025/07/11/14:10:31.884391,28,1752243031,883935564,imu_link,0.003737882526735364,-0.008489123861315737,-0.9679085265973627,0.2511315335643975,"(0.001, 0.0, 0.0, 0.0, 0.001, 0.0, 0.0, 0.0, 0.001)",0.0,0.0,0.0,"(1e-05, 0.0, 0.0, 0.0, 1e-05, 0.0, 0.0, 0.0, 1e-05)",-0.028710937500000002,0.16269531250000002,9.8095703125,"(0.01, 0.0, 0.0, 0.0, 0.01, 0.0, 0.0, 0.0, 0.01)"
2025/07/11/14:10:31.912900,29,1752243031,912407525,imu_link,0.003737882526735364,-0.008489123861315737,-0.9679085265973627,0.2511315335643975,"(0.001, 0.0, 0.0, 0.0, 0.001, 0.0, 0.0, 0.0, 0.001)",0.0,0.0,0.0,"(1e-05, 0.0, 0.0, 0.0, 1e-05, 0.0, 0.0, 0.0, 1e-05)",-0.028710937500000002,0.16269531250000002,9.8095703125,"(0.01, 0.0, 0.0, 0.0, 0.01, 0.0, 0.0, 0.0, 0.01)"
2025/07/11/14:10:31.934426,30,1752243031,934043873,imu_link,0.003737882526735364,-0.008489123861315737,-0.9679085265973627,0.2511315335643975,"(0.001, 0.0, 0.0, 0.0, 0.001, 0.0, 0.0, 0.0, 0.001)",0.0,0.0,0.0,"(1e-05, 0.0, 0.0, 0.0, 1e-05, 0.0, 0.0, 0.0, 1e-05)",-0.028710937500000002,0.16269531250000002,9.814355468750001,"(0.01, 0.0, 0.0, 0.0, 0.01, 0.0, 0.0, 0.0, 0.01)"
2025/07/11/14:10:31.984920,31,1752243031,984492192,imu_link,0.003737882526735364,-0.008489123861315737,-0.9679085265973627,0.2511315335643975,"(0.001, 0.0, 0.0, 0.0, 0.001, 0.0, 0.0, 0.0, 0.001)",0.0,0.0,0.0,"(1e-05, 0.0, 0.0, 0.0, 1e-05, 0.0, 0.0, 0.0, 1e-05)",-0.033496093750000004,0.16269531250000002,9.8095703125,"(0.01, 0.0, 0.0, 0.0, 0.01, 0.0, 0.0, 0.0, 0.01)"
2025/07/11/14:10:32.012963,32,1752243032,12426888,imu_link,0.003737882526735364,-0.008489123861315737,-0.9679085265973627,0.2511315335643975,"(0.001, 0.0, 0.0, 0.0, 0.001, 0.0, 0.0, 0.0, 0.001)",0.0,0.0,0.0,"(1e-05, 0.0, 0.0, 0.0, 1e-05, 0.0, 0.0, 0.0, 1e-05)",-0.033496093750000004,0.16269531250000002,9.8095703125,"(0.01, 0.0, 0.0, 0.0, 0.01, 0.0, 0.0, 0.0, 0.01)"
2025/07/11/14:10:32.034854,33,1752243032,34479681,imu_link,0.003737882526735364,-0.008489123861315737,-0.9679085265973627,0.2511315335643975,"(0.001, 0.0, 0.0, 0.0, 0.001, 0.0, 0.0, 0.0, 0.001)",0.0,0.0,0.0,"(1e-05, 0.0, 0.0, 0.0, 1e-05, 0.0, 0.0, 0.0, 1e-05)",-0.028710937500000002,0.16269531250000002,9.8095703125,"(0.01, 0.0, 0.0, 0.0, 0.01, 0.0, 0.0, 0.0, 0.01)"
2025/07/11/14:10:32.085473,34,1752243032,84956422,imu_link,0.0037722422778752127,-0.008430685577275504,-0.9679089720206554,0.2511312716704397,"(0.001, 0.0, 0.0, 0.0, 0.001, 0.0, 0.0, 0.0, 0.001)",0.0,0.0,0.0,"(1e-05, 0.0, 0.0, 0.0, 1e-05, 0.0, 0.0, 0.0, 1e-05)",-0.02392578125,0.16269531250000002,9.8095703125,"(0.01, 0.0, 0.0, 0.0, 0.01, 0.0, 0.0, 0.0, 0.01)"
2025/07/11/14:10:32.112948,35,1752243032,112462568,imu_link,0.0037722422778752127,-0.008430685577275504,-0.9679089720206554,0.2511312716704397,"(0.001, 0.0, 0.0, 0.0, 0.001, 0.0, 0.0, 0.0, 0.001)",0.0,0.0,0.0,"(1e-05, 0.0, 0.0, 0.0, 1e-05, 0.0, 0.0, 0.0, 1e-05)",-0.02392578125,0.16269531250000002,9.8095703125,"(0.01, 0.0, 0.0, 0.0, 0.01, 0.0, 0.0, 0.0, 0.01)"
2025/07/11/14:10:32.135579,36,1752243032,134997020,imu_link,0.0037722422778752127,-0.008430685577275504,-0.9679089720206554,0.2511312716704397,"(0.001, 0.0, 0.0, 0.0, 0.001, 0.0, 0.0, 0.0, 0.001)",0.0,0.0,0.0,"(1e-05, 0.0, 0.0, 0.0, 1e-05, 0.0, 0.0, 0.0, 1e-05)",-0.028710937500000002,0.16748046875,9.8095703125,"(0.01, 0.0, 0.0, 0.0, 0.01, 0.0, 0.0, 0.0, 0.01)"
2025/07/11/14:10:32.185773,37,1752243032,185340819,imu_link,0.0037722422778752127,-0.008430685577275504,-0.9679089720206554,0.2511312716704397,"(0.001, 0.0, 0.0, 0.0, 0.001, 0.0, 0.0, 0.0, 0.001)",0.0,0.0,0.0,"(1e-05, 0.0, 0.0, 0.0, 1e-05, 0.0, 0.0, 0.0, 1e-05)",-0.028710937500000002,0.16748046875,9.8095703125,"(0.01, 0.0, 0.0, 0.0, 0.01, 0.0, 0.0, 0.0, 0.01)"
2025/07/11/14:10:32.212755,38,1752243032,212352600,imu_link,0.0037722422778752127,-0.008430685577275504,-0.9679089720206554,0.2511312716704397,"(0.001, 0.0, 0.0, 0.0, 0.001, 0.0, 0.0, 0.0, 0.001)",0.0,0.0,0.0,"(1e-05, 0.0, 0.0, 0.0, 1e-05, 0.0, 0.0, 0.0, 1e-05)",-0.028710937500000002,0.16748046875,9.8095703125,"(0.01, 0.0, 0.0, 0.0, 0.01, 0.0, 0.0, 0.0, 0.01)"
2025/07/11/14:10:32.235912,39,1752243032,235441013,imu_link,0.0037722422778752127,-0.008430685577275504,-0.9679089720206554,0.2511312716704397,"(0.001, 0.0, 0.0, 0.0, 0.001, 0.0, 0.0, 0.0, 0.001)",0.0,0.0,0.0,"(1e-05, 0.0, 0.0, 0.0, 1e-05, 0.0, 0.0, 0.0, 1e-05)",-0.028710937500000002,0.16269531250000002,9.8095703125,"(0.01, 0.0, 0.0, 0.0, 0.01, 0.0, 0.0, 0.0, 0.01)"
2025/07/11/14:10:32.286457,40,1752243032,285894875,imu_link,0.0037722422778752127,-0.008430685577275504,-0.9679089720206554,0.2511312716704397,"(0.001, 0.0, 0.0, 0.0, 0.001, 0.0, 0.0, 0.0, 0.001)",0.0,0.0,0.0,"(1e-05, 0.0, 0.0, 0.0, 1e-05, 0.0, 0.0, 0.0, 1e-05)",-0.028710937500000002,0.16269531250000002,9.8095703125,"(0.01, 0.0, 0.0, 0.0, 0.01, 0.0, 0.0, 0.0, 0.01)"
2025/07/11/14:10:32.312970,41,1752243032,312496499,imu_link,0.0037722422778752127,-0.008430685577275504,-0.9679089720206554,0.2511312716704397,"(0.001, 0.0, 0.0, 0.0, 0.001, 0.0, 0.0, 0.0, 0.001)",0.0,0.0,0.0,"(1e-05, 0.0, 0.0, 0.0, 1e-05, 0.0, 0.0, 0.0, 1e-05)",-0.028710937500000002,0.16269531250000002,9.8095703125,"(0.01, 0.0, 0.0, 0.0, 0.01, 0.0, 0.0, 0.0, 0.01)"
2025/07/11/14:10:32.336454,42,1752243032,336022988,imu_link,0.0037722422778752127,-0.008430685577275504,-0.9679089720206554,0.2511312716704397,"(0.001, 0.0, 0.0, 0.0, 0.001, 0.0, 0.0, 0.0, 0.001)",0.0,0.0,0.0,"(1e-05, 0.0, 0.0, 0.0, 1e-05, 0.0, 0.0, 0.0, 1e-05)",-0.028710937500000002,0.16269531250000002,9.8095703125,"(0.01, 0.0, 0.0, 0.0, 0.01, 0.0, 0.0, 0.0, 0.01)"
2025/07/11/14:10:32.386739,43,1752243032,386294314,imu_link,0.0037722422778752127,-0.008430685577275504,-0.9679089720206554,0.2511312716704397,"(0.001, 0.0, 0.0, 0.0, 0.001, 0.0, 0.0, 0.0, 0.001)",0.0,0.0,0.0,"(1e-05, 0.0, 0.0, 0.0, 1e-05, 0.0, 0.0, 0.0, 1e-05)",-0.033496093750000004,0.16269531250000002,9.8095703125,"(0.01, 0.0, 0.0, 0.0, 0.01, 0.0, 0.0, 0.0, 0.01)"
2025/07/11/14:10:32.413089,44,1752243032,412654968,imu_link,0.0037722422778752127,-0.008430685577275504,-0.9679089720206554,0.2511312716704397,"(0.001, 0.0, 0.0, 0.0, 0.001, 0.0, 0.0, 0.0, 0.001)",0.0,0.0,0.0,"(1e-05, 0.0, 0.0, 0.0, 1e-05, 0.0, 0.0, 0.0, 1e-05)",-0.033496093750000004,0.16269531250000002,9.8095703125,"(0.01, 0.0, 0.0, 0.0, 0.01, 0.0, 0.0, 0.0, 0.01)"
2025/07/11/14:10:32.436853,45,1752243032,436471551,imu_link,0.0037722422778752127,-0.008430685577275504,-0.9679089720206554,0.2511312716704397,"(0.001, 0.0, 0.0, 0.0, 0.001, 0.0, 0.0, 0.0, 0.001)",0.0,0.0,0.0,"(1e-05, 0.0, 0.0, 0.0, 1e-05, 0.0, 0.0, 0.0, 1e-05)",-0.028710937500000002,0.16269531250000002,9.8095703125,"(0.01, 0.0, 0.0, 0.0, 0.01, 0.0, 0.0, 0.0, 0.01)"
2025/07/11/14:10:32.487208,46,1752243032,486731733,imu_link,0.0037722422778752127,-0.008430685577275504,-0.9679089720206554,0.2511312716704397,"(0.001, 0.0, 0.0, 0.0, 0.001, 0.0, 0.0, 0.0, 0.001)",0.0,0.0,0.0,"(1e-05, 0.0, 0.0, 0.0, 1e-05, 0.0, 0.0, 0.0, 1e-05)",-0.028710937500000002,0.16269531250000002,9.8095703125,"(0.01, 0.0, 0.0, 0.0, 0.01, 0.0, 0.0, 0.0, 0.01)"
2025/07/11/14:10:32.512995,47,1752243032,512511368,imu_link,0.0037722422778752127,-0.008430685577275504,-0.9679089720206554,0.2511312716704397,"(0.001, 0.0, 0.0, 0.0, 0.001, 0.0, 0.0, 0.0, 0.001)",0.0,0.0,0.0,"(1e-05, 0.0, 0.0, 0.0, 1e-05, 0.0, 0.0, 0.0, 1e-05)",-0.028710937500000002,0.16269531250000002,9.8095703125,"(0.01, 0.0, 0.0, 0.0, 0.01, 0.0, 0.0, 0.0, 0.01)"
2025/07/11/14:10:32.537388,48,1752243032,536989391,imu_link,0.0037722422778752127,-0.008430685577275504,-0.9679089720206554,0.2511312716704397,"(0.001, 0.0, 0.0, 0.0, 0.001, 0.0, 0.0, 0.0, 0.001)",0.0,0.0,0.0,"(1e-05, 0.0, 0.0, 0.0, 1e-05, 0.0, 0.0, 0.0, 1e-05)",-0.028710937500000002,0.16269531250000002,9.8095703125,"(0.01, 0.0, 0.0, 0.0, 0.01, 0.0, 0.0, 0.0, 0.01)"
2025/07/11/14:10:32.587664,49,1752243032,587256918,imu_link,0.0037722422778752127,-0.008430685577275504,-0.9679089720206554,0.2511312716704397,"(0.001, 0.0, 0.0, 0.0, 0.001, 0.0, 0.0, 0.0, 0.001)",0.0,0.0,0.0,"(1e-05, 0.0, 0.0, 0.0, 1e-05, 0.0, 0.0, 0.0, 1e-05)",-0.028710937500000002,0.16748046875,9.8095703125,"(0.01, 0.0, 0.0, 0.0, 0.01, 0.0, 0.0, 0.0, 0.01)"
2025/07/11/14:10:32.612758,50,1752243032,612332154,imu_link,0.0037722422778752127,-0.008430685577275504,-0.9679089720206554,0.2511312716704397,"(0.001, 0.0, 0.0, 0.0, 0.001, 0.0, 0.0, 0.0, 0.001)",0.0,0.0,0.0,"(1e-05, 0.0, 0.0, 0.0, 1e-05, 0.0, 0.0, 0.0, 1e-05)",-0.028710937500000002,0.16748046875,9.8095703125,"(0.01, 0.0, 0.0, 0.0, 0.01, 0.0, 0.0, 0.0, 0.01)"
2025/07/11/14:10:32.637939,51,1752243032,637503863,imu_link,0.0037722422778752127,-0.008430685577275504,-0.9679089720206554,0.2511312716704397,"(0.001, 0.0, 0.0, 0.0, 0.001, 0.0, 0.0, 0.0, 0.001)",0.0,0.0,0.0,"(1e-05, 0.0, 0.0, 0.0, 1e-05, 0.0, 0.0, 0.0, 1e-05)",-0.028710937500000002,0.16269531250000002,9.8095703125,"(0.01, 0.0, 0.0, 0.0, 0.01, 0.0, 0.0, 0.0, 0.01)"
2025/07/11/14:10:32.688478,52,1752243032,687980153,imu_link,0.0037722422778752127,-0.008430685577275504,-0.9679089720206554,0.2511312716704397,"(0.001, 0.0, 0.0, 0.0, 0.001, 0.0, 0.0, 0.0, 0.001)",0.0,0.0,0.0,"(1e-05, 0.0, 0.0, 0.0, 1e-05, 0.0, 0.0, 0.0, 1e-05)",-0.028710937500000002,0.16269531250000002,9.8095703125,"(0.01, 0.0, 0.0, 0.0, 0.01, 0.0, 0.0, 0.0, 0.01)"
2025/07/11/14:10:32.712848,53,1752243032,712329863,imu_link,0.0037722422778752127,-0.008430685577275504,-0.9679089720206554,0.2511312716704397,"(0.001, 0.0, 0.0, 0.0, 0.001, 0.0, 0.0, 0.0, 0.001)",0.0,0.0,0.0,"(1e-05, 0.0, 0.0, 0.0, 1e-05, 0.0, 0.0, 0.0, 1e-05)",-0.028710937500000002,0.16269531250000002,9.8095703125,"(0.01, 0.0, 0.0, 0.0, 0.01, 0.0, 0.0, 0.0, 0.01)"
2025/07/11/14:10:32.738435,54,1752243032,738001319,imu_link,0.0037722422778752127,-0.008430685577275504,-0.9679089720206554,0.2511312716704397,"(0.001, 0.0, 0.0, 0.0, 0.001, 0.0, 0.0, 0.0, 0.001)",0.0,0.0,0.0,"(1e-05, 0.0, 0.0, 0.0, 1e-05, 0.0, 0.0, 0.0, 1e-05)",-0.028710937500000002,0.16748046875,9.8095703125,"(0.01, 0.0, 0.0, 0.0, 0.01, 0.0, 0.0, 0.0, 0.01)"
2025/07/11/14:10:32.788676,55,1752243032,788277135,imu_link,0.0037722422778752127,-0.008430685577275504,-0.9679089720206554,0.2511312716704397,"(0.001, 0.0, 0.0, 0.0, 0.001, 0.0, 0.0, 0.0, 0.001)",0.0,0.0,0.0,"(1e-05, 0.0, 0.0, 0.0, 1e-05, 0.0, 0.0, 0.0, 1e-05)",-0.02392578125,0.16269531250000002,9.8095703125,"(0.01, 0.0, 0.0, 0.0, 0.01, 0.0, 0.0, 0.0, 0.01)"
2025/07/11/14:10:32.812936,56,1752243032,812501350,imu_link,0.0037722422778752127,-0.008430685577275504,-0.9679089720206554,0.2511312716704397,"(0.001, 0.0, 0.0, 0.0, 0.001, 0.0, 0.0, 0.0, 0.001)",0.0,0.0,0.0,"(1e-05, 0.0, 0.0, 0.0, 1e-05, 0.0, 0.0, 0.0, 1e-05)",-0.02392578125,0.16269531250000002,9.8095703125,"(0.01, 0.0, 0.0, 0.0, 0.01, 0.0, 0.0, 0.0, 0.01)"
2025/07/11/14:10:32.839072,57,1752243032,838659256,imu_link,0.0037722422778752127,-0.008430685577275504,-0.9679089720206554,0.2511312716704397,"(0.001, 0.0, 0.0, 0.0, 0.001, 0.0, 0.0, 0.0, 0.001)",0.0,0.0,0.0,"(1e-05, 0.0, 0.0, 0.0, 1e-05, 0.0, 0.0, 0.0, 1e-05)",-0.02392578125,0.16269531250000002,9.8095703125,"(0.01, 0.0, 0.0, 0.0, 0.01, 0.0, 0.0, 0.0, 0.01)"
2025/07/11/14:10:32.889249,58,1752243032,888762947,imu_link,0.0037258440555343504,-0.008442725318488985,-0.9679089324275331,0.2511317124583504,"(0.001, 0.0, 0.0, 0.0, 0.001, 0.0, 0.0, 0.0, 0.001)",0.0,0.0,0.0,"(1e-05, 0.0, 0.0, 0.0, 1e-05, 0.0, 0.0, 0.0, 1e-05)",-0.02392578125,0.16269531250000002,9.8095703125,"(0.01, 0.0, 0.0, 0.0, 0.01, 0.0, 0.0, 0.0, 0.01)"
2025/07/11/14:10:32.912937,59,1752243032,912525245,imu_link,0.0037258440555343504,-0.008442725318488985,-0.9679089324275331,0.2511317124583504,"(0.001, 0.0, 0.0, 0.0, 0.001, 0.0, 0.0, 0.0, 0.001)",0.0,0.0,0.0,"(1e-05, 0.0, 0.0, 0.0, 1e-05, 0.0, 0.0, 0.0, 1e-05)",-0.02392578125,0.16269531250000002,9.8095703125,"(0.01, 0.0, 0.0, 0.0, 0.01, 0.0, 0.0, 0.0, 0.01)"
2025/07/11/14:10:32.939411,60,1752243032,939032549,imu_link,0.0037258440555343504,-0.008442725318488985,-0.9679089324275331,0.2511317124583504,"(0.001, 0.0, 0.0, 0.0, 0.001, 0.0, 0.0, 0.0, 0.001)",0.0,0.0,0.0,"(1e-05, 0.0, 0.0, 0.0, 1e-05, 0.0, 0.0, 0.0, 1e-05)",-0.028710937500000002,0.16269531250000002,9.8095703125,"(0.01, 0.0, 0.0, 0.0, 0.01, 0.0, 0.0, 0.0, 0.01)"
2025/07/11/14:10:32.989946,61,1752243032,989523520,imu_link,0.0037258440555343504,-0.008442725318488985,-0.9679089324275331,0.2511317124583504,"(0.001, 0.0, 0.0, 0.0, 0.001, 0.0, 0.0, 0.0, 0.001)",0.0,0.0,0.0,"(1e-05, 0.0, 0.0, 0.0, 1e-05, 0.0, 0.0, 0.0, 1e-05)",-0.028710937500000002,0.16269531250000002,9.8095703125,"(0.01, 0.0, 0.0, 0.0, 0.01, 0.0, 0.0, 0.0, 0.01)"
2025/07/11/14:10:33.012999,62,1752243033,12545404,imu_link,0.0037258440555343504,-0.008442725318488985,-0.9679089324275331,0.2511317124583504,"(0.001, 0.0, 0.0, 0.0, 0.001, 0.0, 0.0, 0.0, 0.001)",0.0,0.0,0.0,"(1e-05, 0.0, 0.0, 0.0, 1e-05, 0.0, 0.0, 0.0, 1e-05)",-0.028710937500000002,0.16269531250000002,9.8095703125,"(0.01, 0.0, 0.0, 0.0, 0.01, 0.0, 0.0, 0.0, 0.01)"
2025/07/11/14:10:33.039951,63,1752243033,39512741,imu_link,0.0037258440555343504,-0.008442725318488985,-0.9679089324275331,0.2511317124583504,"(0.001, 0.0, 0.0, 0.0, 0.001, 0.0, 0.0, 0.0, 0.001)",0.0,0.0,0.0,"(1e-05, 0.0, 0.0, 0.0, 1e-05, 0.0, 0.0, 0.0, 1e-05)",-0.028710937500000002,0.16269531250000002,9.80478515625,"(0.01, 0.0, 0.0, 0.0, 0.01, 0.0, 0.0, 0.0, 0.01)"
2025/07/11/14:10:33.090464,64,1752243033,89779650,imu_link,0.0037258440555343504,-0.008442725318488985,-0.9679089324275331,0.2511317124583504,"(0.001, 0.0, 0.0, 0.0, 0.001, 0.0, 0.0, 0.0, 0.001)",0.0,0.0,0.0,"(1e-05, 0.0, 0.0, 0.0, 1e-05, 0.0, 0.0, 0.0, 1e-05)",-0.028710937500000002,0.16748046875,9.8095703125,"(0.01, 0.0, 0.0, 0.0, 0.01, 0.0, 0.0, 0.0, 0.01)"
2025/07/11/14:10:33.113046,65,1752243033,112559934,imu_link,0.0037258440555343504,-0.008442725318488985,-0.9679089324275331,0.2511317124583504,"(0.001, 0.0, 0.0, 0.0, 0.001, 0.0, 0.0, 0.0, 0.001)",0.0,0.0,0.0,"(1e-05, 0.0, 0.0, 0.0, 1e-05, 0.0, 0.0, 0.0, 1e-05)",-0.028710937500000002,0.16748046875,9.8095703125,"(0.01, 0.0, 0.0, 0.0, 0.01, 0.0, 0.0, 0.0, 0.01)"
2025/07/11/14:10:33.140405,66,1752243033,140036488,imu_link,0.0037258440555343504,-0.008442725318488985,-0.9679089324275331,0.2511317124583504,"(0.001, 0.0, 0.0, 0.0, 0.001, 0.0, 0.0, 0.0, 0.001)",0.0,0.0,0.0,"(1e-05, 0.0, 0.0, 0.0, 1e-05, 0.0, 0.0, 0.0, 1e-05)",-0.033496093750000004,0.16269531250000002,9.8095703125,"(0.01, 0.0, 0.0, 0.0, 0.01, 0.0, 0.0, 0.0, 0.01)"
2025/07/11/14:10:33.190845,67,1752243033,190393437,imu_link,0.0037258440555343504,-0.008442725318488985,-0.9679089324275331,0.2511317124583504,"(0.001, 0.0, 0.0, 0.0, 0.001, 0.0, 0.0, 0.0, 0.001)",0.0,0.0,0.0,"(1e-05, 0.0, 0.0, 0.0, 1e-05, 0.0, 0.0, 0.0, 1e-05)",-0.028710937500000002,0.16269531250000002,9.8095703125,"(0.01, 0.0, 0.0, 0.0, 0.01, 0.0, 0.0, 0.0, 0.01)"
2025/07/11/14:10:33.212944,68,1752243033,212520700,imu_link,0.0037254393331843903,-0.0084429039141979,-0.9679209697909135,0.2510853136172796,"(0.001, 0.0, 0.0, 0.0, 0.001, 0.0, 0.0, 0.0, 0.001)",0.0,0.0,0.0,"(1e-05, 0.0, 0.0, 0.0, 1e-05, 0.0, 0.0, 0.0, 1e-05)",-0.028710937500000002,0.16269531250000002,9.8095703125,"(0.01, 0.0, 0.0, 0.0, 0.01, 0.0, 0.0, 0.0, 0.01)"
2025/07/11/14:10:33.241002,69,1752243033,240542126,imu_link,0.0037254393331843903,-0.0084429039141979,-0.9679209697909135,0.2510853136172796,"(0.001, 0.0, 0.0, 0.0, 0.001, 0.0, 0.0, 0.0, 0.001)",0.0,0.0,0.0,"(1e-05, 0.0, 0.0, 0.0, 1e-05, 0.0, 0.0, 0.0, 1e-05)",-0.028710937500000002,0.16748046875,9.8095703125,"(0.01, 0.0, 0.0, 0.0, 0.01, 0.0, 0.0, 0.0, 0.01)"
2025/07/11/14:10:33.291254,70,1752243033,290828806,imu_link,0.0037254393331843903,-0.0084429039141979,-0.9679209697909135,0.2510853136172796,"(0.001, 0.0, 0.0, 0.0, 0.001, 0.0, 0.0, 0.0, 0.001)",0.0,0.0,0.0,"(1e-05, 0.0, 0.0, 0.0, 1e-05, 0.0, 0.0, 0.0, 1e-05)",-0.028710937500000002,0.16269531250000002,9.8095703125,"(0.01, 0.0, 0.0, 0.0, 0.01, 0.0, 0.0, 0.0, 0.01)"
2025/07/11/14:10:33.313120,71,1752243033,312606721,imu_link,0.0037254393331843903,-0.0084429039141979,-0.9679209697909135,0.2510853136172796,"(0.001, 0.0, 0.0, 0.0, 0.001, 0.0, 0.0, 0.0, 0.001)",0.0,0.0,0.0,"(1e-05, 0.0, 0.0, 0.0, 1e-05, 0.0, 0.0, 0.0, 1e-05)",-0.028710937500000002,0.16269531250000002,9.8095703125,"(0.01, 0.0, 0.0, 0.0, 0.01, 0.0, 0.0, 0.0, 0.01)"
2025/07/11/14:10:33.341783,72,1752243033,341298564,imu_link,0.0037254393331843903,-0.0084429039141979,-0.9679209697909135,0.2510853136172796,"(0.001, 0.0, 0.0, 0.0, 0.001, 0.0, 0.0, 0.0, 0.001)",0.0,0.0,0.0,"(1e-05, 0.0, 0.0, 0.0, 1e-05, 0.0, 0.0, 0.0, 1e-05)",-0.028710937500000002,0.16269531250000002,9.8095703125,"(0.01, 0.0, 0.0, 0.0, 0.01, 0.0, 0.0, 0.0, 0.01)"
2025/07/11/14:10:33.392301,73,1752243033,391804779,imu_link,0.0037254393331843903,-0.0084429039141979,-0.9679209697909135,0.2510853136172796,"(0.001, 0.0, 0.0, 0.0, 0.001, 0.0, 0.0, 0.0, 0.001)",0.0,0.0,0.0,"(1e-05, 0.0, 0.0, 0.0, 1e-05, 0.0, 0.0, 0.0, 1e-05)",-0.028710937500000002,0.16748046875,9.8095703125,"(0.01, 0.0, 0.0, 0.0, 0.01, 0.0, 0.0, 0.0, 0.01)"
2025/07/11/14:10:33.413105,74,1752243033,412576947,imu_link,0.0037254393331843903,-0.0084429039141979,-0.9679209697909135,0.2510853136172796,"(0.001, 0.0, 0.0, 0.0, 0.001, 0.0, 0.0, 0.0, 0.001)",0.0,0.0,0.0,"(1e-05, 0.0, 0.0, 0.0, 1e-05, 0.0, 0.0, 0.0, 1e-05)",-0.028710937500000002,0.16748046875,9.8095703125,"(0.01, 0.0, 0.0, 0.0, 0.01, 0.0, 0.0, 0.0, 0.01)"
2025/07/11/14:10:33.442092,75,1752243033,441674778,imu_link,0.0037254393331843903,-0.0084429039141979,-0.9679209697909135,0.2510853136172796,"(0.001, 0.0, 0.0, 0.0, 0.001, 0.0, 0.0, 0.0, 0.001)",0.0,0.0,0.0,"(1e-05, 0.0, 0.0, 0.0, 1e-05, 0.0, 0.0, 0.0, 1e-05)",-0.028710937500000002,0.16748046875,9.8095703125,"(0.01, 0.0, 0.0, 0.0, 0.01, 0.0, 0.0, 0.0, 0.01)"
2025/07/11/14:10:33.492688,76,1752243033,492148635,imu_link,0.0037254393331843903,-0.0084429039141979,-0.9679209697909135,0.2510853136172796,"(0.001, 0.0, 0.0, 0.0, 0.001, 0.0, 0.0, 0.0, 0.001)",0.0,0.0,0.0,"(1e-05, 0.0, 0.0, 0.0, 1e-05, 0.0, 0.0, 0.0, 1e-05)",-0.028710937500000002,0.16269531250000002,9.8095703125,"(0.01, 0.0, 0.0, 0.0, 0.01, 0.0, 0.0, 0.0, 0.01)"
2025/07/11/14:10:33.513059,77,1752243033,512557986,imu_link,0.0037254393331843903,-0.0084429039141979,-0.9679209697909135,0.2510853136172796,"(0.001, 0.0, 0.0, 0.0, 0.001, 0.0, 0.0, 0.0, 0.001)",0.0,0.0,0.0,"(1e-05, 0.0, 0.0, 0.0, 1e-05, 0.0, 0.0, 0.0, 1e-05)",-0.028710937500000002,0.16269531250000002,9.8095703125,"(0.01, 0.0, 0.0, 0.0, 0.01, 0.0, 0.0, 0.0, 0.01)"
2025/07/11/14:10:33.542584,78,1752243033,542112743,imu_link,0.0037254393331843903,-0.0084429039141979,-0.9679209697909135,0.2510853136172796,"(0.001, 0.0, 0.0, 0.0, 0.001, 0.0, 0.0, 0.0, 0.001)",0.0,0.0,0.0,"(1e-05, 0.0, 0.0, 0.0, 1e-05, 0.0, 0.0, 0.0, 1e-05)",-0.033496093750000004,0.16269531250000002,9.8095703125,"(0.01, 0.0, 0.0, 0.0, 0.01, 0.0, 0.0, 0.0, 0.01)"
2025/07/11/14:10:33.592965,79,1752243033,592520319,imu_link,0.0037254393331843903,-0.0084429039141979,-0.9679209697909135,0.2510853136172796,"(0.001, 0.0, 0.0, 0.0, 0.001, 0.0, 0.0, 0.0, 0.001)",0.0,0.0,0.0,"(1e-05, 0.0, 0.0, 0.0, 1e-05, 0.0, 0.0, 0.0, 1e-05)",-0.028710937500000002,0.16269531250000002,9.8095703125,"(0.01, 0.0, 0.0, 0.0, 0.01, 0.0, 0.0, 0.0, 0.01)"
2025/07/11/14:10:33.613084,80,1752243033,612543795,imu_link,0.0037254393331843903,-0.0084429039141979,-0.9679209697909135,0.2510853136172796,"(0.001, 0.0, 0.0, 0.0, 0.001, 0.0, 0.0, 0.0, 0.001)",0.0,0.0,0.0,"(1e-05, 0.0, 0.0, 0.0, 1e-05, 0.0, 0.0, 0.0, 1e-05)",-0.028710937500000002,0.16269531250000002,9.8095703125,"(0.01, 0.0, 0.0, 0.0, 0.01, 0.0, 0.0, 0.0, 0.01)"
2025/07/11/14:10:33.643122,81,1752243033,642667024,imu_link,0.0037254393331843903,-0.0084429039141979,-0.9679209697909135,0.2510853136172796,"(0.001, 0.0, 0.0, 0.0, 0.001, 0.0, 0.0, 0.0, 0.001)",0.0,0.0,0.0,"(1e-05, 0.0, 0.0, 0.0, 1e-05, 0.0, 0.0, 0.0, 1e-05)",-0.028710937500000002,0.16269531250000002,9.8095703125,"(0.01, 0.0, 0.0, 0.0, 0.01, 0.0, 0.0, 0.0, 0.01)"
2025/07/11/14:10:33.693530,82,1752243033,693078920,imu_link,0.0037254393331843903,-0.0084429039141979,-0.9679209697909135,0.2510853136172796,"(0.001, 0.0, 0.0, 0.0, 0.001, 0.0, 0.0, 0.0, 0.001)",0.0,0.0,0.0,"(1e-05, 0.0, 0.0, 0.0, 1e-05, 0.0, 0.0, 0.0, 1e-05)",-0.02392578125,0.16269531250000002,9.814355468750001,"(0.01, 0.0, 0.0, 0.0, 0.01, 0.0, 0.0, 0.0, 0.01)"
2025/07/11/14:10:33.713034,83,1752243033,712556841,imu_link,0.003771838132619798,-0.008430866397185141,-0.9679210093629059,0.2510848728274714,"(0.001, 0.0, 0.0, 0.0, 0.001, 0.0, 0.0, 0.0, 0.001)",0.0,0.0,0.0,"(1e-05, 0.0, 0.0, 0.0, 1e-05, 0.0, 0.0, 0.0, 1e-05)",-0.02392578125,0.16269531250000002,9.814355468750001,"(0.01, 0.0, 0.0, 0.0, 0.01, 0.0, 0.0, 0.0, 0.01)"
2025/07/11/14:10:33.743473,84,1752243033,743078373,imu_link,0.003771838132619798,-0.008430866397185141,-0.9679210093629059,0.2510848728274714,"(0.001, 0.0, 0.0, 0.0, 0.001, 0.0, 0.0, 0.0, 0.001)",0.0,0.0,0.0,"(1e-05, 0.0, 0.0, 0.0, 1e-05, 0.0, 0.0, 0.0, 1e-05)",-0.028710937500000002,0.16269531250000002,9.8095703125,"(0.01, 0.0, 0.0, 0.0, 0.01, 0.0, 0.0, 0.0, 0.01)"
2025/07/11/14:10:33.794084,85,1752243033,793563623,imu_link,0.003771838132619798,-0.008430866397185141,-0.9679210093629059,0.2510848728274714,"(0.001, 0.0, 0.0, 0.0, 0.001, 0.0, 0.0, 0.0, 0.001)",0.0,0.0,0.0,"(1e-05, 0.0, 0.0, 0.0, 1e-05, 0.0, 0.0, 0.0, 1e-05)",-0.028710937500000002,0.16748046875,9.8095703125,"(0.01, 0.0, 0.0, 0.0, 0.01, 0.0, 0.0, 0.0, 0.01)"
2025/07/11/14:10:33.812835,86,1752243033,812385478,imu_link,0.0037254393331843903,-0.0084429039141979,-0.9679209697909135,0.2510853136172796,"(0.001, 0.0, 0.0, 0.0, 0.001, 0.0, 0.0, 0.0, 0.001)",0.0,0.0,0.0,"(1e-05, 0.0, 0.0, 0.0, 1e-05, 0.0, 0.0, 0.0, 1e-05)",-0.028710937500000002,0.16748046875,9.8095703125,"(0.01, 0.0, 0.0, 0.0, 0.01, 0.0, 0.0, 0.0, 0.01)"
2025/07/11/14:10:33.844252,87,1752243033,843824730,imu_link,0.0037254393331843903,-0.0084429039141979,-0.9679209697909135,0.2510853136172796,"(0.001, 0.0, 0.0, 0.0, 0.001, 0.0, 0.0, 0.0, 0.001)",0.0,0.0,0.0,"(1e-05, 0.0, 0.0, 0.0, 1e-05, 0.0, 0.0, 0.0, 1e-05)",-0.02392578125,0.16748046875,9.8095703125,"(0.01, 0.0, 0.0, 0.0, 0.01, 0.0, 0.0, 0.0, 0.01)"
2025/07/11/14:10:33.894618,88,1752243033,894213146,imu_link,0.0037254393331843903,-0.0084429039141979,-0.9679209697909135,0.2510853136172796,"(0.001, 0.0, 0.0, 0.0, 0.001, 0.0, 0.0, 0.0, 0.001)",0.0,0.0,0.0,"(1e-05, 0.0, 0.0, 0.0, 1e-05, 0.0, 0.0, 0.0, 1e-05)",-0.028710937500000002,0.16748046875,9.8095703125,"(0.01, 0.0, 0.0, 0.0, 0.01, 0.0, 0.0, 0.0, 0.01)"
2025/07/11/14:10:33.913118,89,1752243033,912540856,imu_link,0.0037254393331843903,-0.0084429039141979,-0.9679209697909135,0.2510853136172796,"(0.001, 0.0, 0.0, 0.0, 0.001, 0.0, 0.0, 0.0, 0.001)",0.0,0.0,0.0,"(1e-05, 0.0, 0.0, 0.0, 1e-05, 0.0, 0.0, 0.0, 1e-05)",-0.028710937500000002,0.16748046875,9.8095703125,"(0.01, 0.0, 0.0, 0.0, 0.01, 0.0, 0.0, 0.0, 0.01)"
2025/07/11/14:10:33.944540,90,1752243033,944080199,imu_link,0.0037254393331843903,-0.0084429039141979,-0.9679209697909135,0.2510853136172796,"(0.001, 0.0, 0.0, 0.0, 0.001, 0.0, 0.0, 0.0, 0.001)",0.0,0.0,0.0,"(1e-05, 0.0, 0.0, 0.0, 1e-05, 0.0, 0.0, 0.0, 1e-05)",-0.028710937500000002,0.16269531250000002,9.8095703125,"(0.01, 0.0, 0.0, 0.0, 0.01, 0.0, 0.0, 0.0, 0.01)"
2025/07/11/14:10:33.995162,91,1752243033,994696556,imu_link,0.0037254393331843903,-0.0084429039141979,-0.9679209697909135,0.2510853136172796,"(0.001, 0.0, 0.0, 0.0, 0.001, 0.0, 0.0, 0.0, 0.001)",0.0,0.0,0.0,"(1e-05, 0.0, 0.0, 0.0, 1e-05, 0.0, 0.0, 0.0, 1e-05)",-0.028710937500000002,0.16748046875,9.8095703125,"(0.01, 0.0, 0.0, 0.0, 0.01, 0.0, 0.0, 0.0, 0.01)"
2025/07/11/14:10:34.013176,92,1752243034,12560248,imu_link,0.0037254393331843903,-0.0084429039141979,-0.9679209697909135,0.2510853136172796,"(0.001, 0.0, 0.0, 0.0, 0.001, 0.0, 0.0, 0.0, 0.001)",0.0,0.0,0.0,"(1e-05, 0.0, 0.0, 0.0, 1e-05, 0.0, 0.0, 0.0, 1e-05)",-0.028710937500000002,0.16748046875,9.8095703125,"(0.01, 0.0, 0.0, 0.0, 0.01, 0.0, 0.0, 0.0, 0.01)"
2025/07/11/14:10:34.045082,93,1752243034,44653889,imu_link,0.0037254393331843903,-0.0084429039141979,-0.9679209697909135,0.2510853136172796,"(0.001, 0.0, 0.0, 0.0, 0.001, 0.0, 0.0, 0.0, 0.001)",0.0,0.0,0.0,"(1e-05, 0.0, 0.0, 0.0, 1e-05, 0.0, 0.0, 0.0, 1e-05)",-0.028710937500000002,0.16269531250000002,9.8095703125,"(0.01, 0.0, 0.0, 0.0, 0.01, 0.0, 0.0, 0.0, 0.01)"
2025/07/11/14:10:34.095360,94,1752243034,94894985,imu_link,0.0037254393331843903,-0.0084429039141979,-0.9679209697909135,0.2510853136172796,"(0.001, 0.0, 0.0, 0.0, 0.001, 0.0, 0.0, 0.0, 0.001)",0.0,0.0,0.0,"(1e-05, 0.0, 0.0, 0.0, 1e-05, 0.0, 0.0, 0.0, 1e-05)",-0.028710937500000002,0.16269531250000002,9.8095703125,"(0.01, 0.0, 0.0, 0.0, 0.01, 0.0, 0.0, 0.0, 0.01)"
2025/07/11/14:10:34.113139,95,1752243034,112656134,imu_link,0.0037254393331843903,-0.0084429039141979,-0.9679209697909135,0.2510853136172796,"(0.001, 0.0, 0.0, 0.0, 0.001, 0.0, 0.0, 0.0, 0.001)",0.0,0.0,0.0,"(1e-05, 0.0, 0.0, 0.0, 1e-05, 0.0, 0.0, 0.0, 1e-05)",-0.028710937500000002,0.16269531250000002,9.8095703125,"(0.01, 0.0, 0.0, 0.0, 0.01, 0.0, 0.0, 0.0, 0.01)"
2025/07/11/14:10:34.145505,96,1752243034,145090125,imu_link,0.0037254393331843903,-0.0084429039141979,-0.9679209697909135,0.2510853136172796,"(0.001, 0.0, 0.0, 0.0, 0.001, 0.0, 0.0, 0.0, 0.001)",0.0,0.0,0.0,"(1e-05, 0.0, 0.0, 0.0, 1e-05, 0.0, 0.0, 0.0, 1e-05)",-0.028710937500000002,0.16269531250000002,9.8095703125,"(0.01, 0.0, 0.0, 0.0, 0.01, 0.0, 0.0, 0.0, 0.01)"
2025/07/11/14:10:34.196129,97,1752243034,195587623,imu_link,0.0037254393331843903,-0.0084429039141979,-0.9679209697909135,0.2510853136172796,"(0.001, 0.0, 0.0, 0.0, 0.001, 0.0, 0.0, 0.0, 0.001)",0.0,0.0,0.0,"(1e-05, 0.0, 0.0, 0.0, 1e-05, 0.0, 0.0, 0.0, 1e-05)",-0.028710937500000002,0.16269531250000002,9.8095703125,"(0.01, 0.0, 0.0, 0.0, 0.01, 0.0, 0.0, 0.0, 0.01)"
2025/07/11/14:10:34.212812,98,1752243034,212377930,imu_link,0.0037254393331843903,-0.0084429039141979,-0.9679209697909135,0.2510853136172796,"(0.001, 0.0, 0.0, 0.0, 0.001, 0.0, 0.0, 0.0, 0.001)",0.0,0.0,0.0,"(1e-05, 0.0, 0.0, 0.0, 1e-05, 0.0, 0.0, 0.0, 1e-05)",-0.028710937500000002,0.16269531250000002,9.8095703125,"(0.01, 0.0, 0.0, 0.0, 0.01, 0.0, 0.0, 0.0, 0.01)"
2025/07/11/14:10:34.245990,99,1752243034,245570664,imu_link,0.0037254393331843903,-0.0084429039141979,-0.9679209697909135,0.2510853136172796,"(0.001, 0.0, 0.0, 0.0, 0.001, 0.0, 0.0, 0.0, 0.001)",0.0,0.0,0.0,"(1e-05, 0.0, 0.0, 0.0, 1e-05, 0.0, 0.0, 0.0, 1e-05)",-0.02392578125,0.16269531250000002,9.8095703125,"(0.01, 0.0, 0.0, 0.0, 0.01, 0.0, 0.0, 0.0, 0.01)"
2025/07/11/14:10:34.296468,100,1752243034,296055295,imu_link,0.0037254393331843903,-0.0084429039141979,-0.9679209697909135,0.2510853136172796,"(0.001, 0.0, 0.0, 0.0, 0.001, 0.0, 0.0, 0.0, 0.001)",0.0,0.0,0.0,"(1e-05, 0.0, 0.0, 0.0, 1e-05, 0.0, 0.0, 0.0, 1e-05)",-0.028710937500000002,0.16269531250000002,9.8095703125,"(0.01, 0.0, 0.0, 0.0, 0.01, 0.0, 0.0, 0.0, 0.01)"
2025/07/11/14:10:34.313075,101,1752243034,312575702,imu_link,0.0037254393331843903,-0.0084429039141979,-0.9679209697909135,0.2510853136172796,"(0.001, 0.0, 0.0, 0.0, 0.001, 0.0, 0.0, 0.0, 0.001)",0.0,0.0,0.0,"(1e-05, 0.0, 0.0, 0.0, 1e-05, 0.0, 0.0, 0.0, 1e-05)",-0.028710937500000002,0.16269531250000002,9.8095703125,"(0.01, 0.0, 0.0, 0.0, 0.01, 0.0, 0.0, 0.0, 0.01)"
2025/07/11/14:10:34.346555,102,1752243034,346109908,imu_link,0.0037254393331843903,-0.0084429039141979,-0.9679209697909135,0.2510853136172796,"(0.001, 0.0, 0.0, 0.0, 0.001, 0.0, 0.0, 0.0, 0.001)",0.0,0.0,0.0,"(1e-05, 0.0, 0.0, 0.0, 1e-05, 0.0, 0.0, 0.0, 1e-05)",-0.028710937500000002,0.16269531250000002,9.8095703125,"(0.01, 0.0, 0.0, 0.0, 0.01, 0.0, 0.0, 0.0, 0.01)"
2025/07/11/14:10:34.396937,103,1752243034,396545155,imu_link,0.0037254393331843903,-0.0084429039141979,-0.9679209697909135,0.2510853136172796,"(0.001, 0.0, 0.0, 0.0, 0.001, 0.0, 0.0, 0.0, 0.001)",0.0,0.0,0.0,"(1e-05, 0.0, 0.0, 0.0, 1e-05, 0.0, 0.0, 0.0, 1e-05)",-0.028710937500000002,0.16269531250000002,9.814355468750001,"(0.01, 0.0, 0.0, 0.0, 0.01, 0.0, 0.0, 0.0, 0.01)"
2025/07/11/14:10:34.413146,104,1752243034,412576057,imu_link,0.0037254393331843903,-0.0084429039141979,-0.9679209697909135,0.2510853136172796,"(0.001, 0.0, 0.0, 0.0, 0.001, 0.0, 0.0, 0.0, 0.001)",0.0,0.0,0.0,"(1e-05, 0.0, 0.0, 0.0, 1e-05, 0.0, 0.0, 0.0, 1e-05)",-0.028710937500000002,0.16269531250000002,9.814355468750001,"(0.01, 0.0, 0.0, 0.0, 0.01, 0.0, 0.0, 0.0, 0.01)"
2025/07/11/14:10:34.446993,105,1752243034,446597042,imu_link,0.0037254393331843903,-0.0084429039141979,-0.9679209697909135,0.2510853136172796,"(0.001, 0.0, 0.0, 0.0, 0.001, 0.0, 0.0, 0.0, 0.001)",0.0,0.0,0.0,"(1e-05, 0.0, 0.0, 0.0, 1e-05, 0.0, 0.0, 0.0, 1e-05)",-0.028710937500000002,0.16269531250000002,9.8095703125,"(0.01, 0.0, 0.0, 0.0, 0.01, 0.0, 0.0, 0.0, 0.01)"
2025/07/11/14:10:34.497339,106,1752243034,496901171,imu_link,0.0037254393331843903,-0.0084429039141979,-0.9679209697909135,0.2510853136172796,"(0.001, 0.0, 0.0, 0.0, 0.001, 0.0, 0.0, 0.0, 0.001)",0.0,0.0,0.0,"(1e-05, 0.0, 0.0, 0.0, 1e-05, 0.0, 0.0, 0.0, 1e-05)",-0.028710937500000002,0.16269531250000002,9.8095703125,"(0.01, 0.0, 0.0, 0.0, 0.01, 0.0, 0.0, 0.0, 0.01)"
2025/07/11/14:10:34.513154,107,1752243034,512569236,imu_link,0.0037254393331843903,-0.0084429039141979,-0.9679209697909135,0.2510853136172796,"(0.001, 0.0, 0.0, 0.0, 0.001, 0.0, 0.0, 0.0, 0.001)",0.0,0.0,0.0,"(1e-05, 0.0, 0.0, 0.0, 1e-05, 0.0, 0.0, 0.0, 1e-05)",-0.028710937500000002,0.16269531250000002,9.8095703125,"(0.01, 0.0, 0.0, 0.0, 0.01, 0.0, 0.0, 0.0, 0.01)"
2025/07/11/14:10:34.547530,108,1752243034,547135925,imu_link,0.0037254393331843903,-0.0084429039141979,-0.9679209697909135,0.2510853136172796,"(0.001, 0.0, 0.0, 0.0, 0.001, 0.0, 0.0, 0.0, 0.001)",0.0,0.0,0.0,"(1e-05, 0.0, 0.0, 0.0, 1e-05, 0.0, 0.0, 0.0, 1e-05)",-0.028710937500000002,0.16748046875,9.8095703125,"(0.01, 0.0, 0.0, 0.0, 0.01, 0.0, 0.0, 0.0, 0.01)"
2025/07/11/14:10:34.597797,109,1752243034,597405501,imu_link,0.0037254393331843903,-0.0084429039141979,-0.9679209697909135,0.2510853136172796,"(0.001, 0.0, 0.0, 0.0, 0.001, 0.0, 0.0, 0.0, 0.001)",0.0,0.0,0.0,"(1e-05, 0.0, 0.0, 0.0, 1e-05, 0.0, 0.0, 0.0, 1e-05)",-0.028710937500000002,0.16269531250000002,9.814355468750001,"(0.01, 0.0, 0.0, 0.0, 0.01, 0.0, 0.0, 0.0, 0.01)"
2025/07/11/14:10:34.612944,110,1752243034,612365640,imu_link,0.0037254393331843903,-0.0084429039141979,-0.9679209697909135,0.2510853136172796,"(0.001, 0.0, 0.0, 0.0, 0.001, 0.0, 0.0, 0.0, 0.001)",0.0,0.0,0.0,"(1e-05, 0.0, 0.0, 0.0, 1e-05, 0.0, 0.0, 0.0, 1e-05)",-0.028710937500000002,0.16269531250000002,9.814355468750001,"(0.01, 0.0, 0.0, 0.0, 0.01, 0.0, 0.0, 0.0, 0.01)"
2025/07/11/14:10:34.648184,111,1752243034,647732770,imu_link,0.0037254393331843903,-0.0084429039141979,-0.9679209697909135,0.2510853136172796,"(0.001, 0.0, 0.0, 0.0, 0.001, 0.0, 0.0, 0.0, 0.001)",0.0,0.0,0.0,"(1e-05, 0.0, 0.0, 0.0, 1e-05, 0.0, 0.0, 0.0, 1e-05)",-0.02392578125,0.16269531250000002,9.8095703125,"(0.01, 0.0, 0.0, 0.0, 0.01, 0.0, 0.0, 0.0, 0.01)"
2025/07/11/14:10:34.698333,112,1752243034,697900011,imu_link,0.0037254393331843903,-0.0084429039141979,-0.9679209697909135,0.2510853136172796,"(0.001, 0.0, 0.0, 0.0, 0.001, 0.0, 0.0, 0.0, 0.001)",0.0,0.0,0.0,"(1e-05, 0.0, 0.0, 0.0, 1e-05, 0.0, 0.0, 0.0, 1e-05)",-0.02392578125,0.16269531250000002,9.8095703125,"(0.01, 0.0, 0.0, 0.0, 0.01, 0.0, 0.0, 0.0, 0.01)"
2025/07/11/14:10:34.713205,113,1752243034,712609189,imu_link,0.0037254393331843903,-0.0084429039141979,-0.9679209697909135,0.2510853136172796,"(0.001, 0.0, 0.0, 0.0, 0.001, 0.0, 0.0, 0.0, 0.001)",0.0,0.0,0.0,"(1e-05, 0.0, 0.0, 0.0, 1e-05, 0.0, 0.0, 0.0, 1e-05)",-0.02392578125,0.16269531250000002,9.8095703125,"(0.01, 0.0, 0.0, 0.0, 0.01, 0.0, 0.0, 0.0, 0.01)"
2025/07/11/14:10:34.748487,114,1752243034,748107837,imu_link,0.0037254393331843903,-0.0084429039141979,-0.9679209697909135,0.2510853136172796,"(0.001, 0.0, 0.0, 0.0, 0.001, 0.0, 0.0, 0.0, 0.001)",0.0,0.0,0.0,"(1e-05, 0.0, 0.0, 0.0, 1e-05, 0.0, 0.0, 0.0, 1e-05)",-0.02392578125,0.16748046875,9.8095703125,"(0.01, 0.0, 0.0, 0.0, 0.01, 0.0, 0.0, 0.0, 0.01)"
2025/07/11/14:10:34.798837,115,1752243034,798407758,imu_link,0.0037254393331843903,-0.0084429039141979,-0.9679209697909135,0.2510853136172796,"(0.001, 0.0, 0.0, 0.0, 0.001, 0.0, 0.0, 0.0, 0.001)",0.0,0.0,0.0,"(1e-05, 0.0, 0.0, 0.0, 1e-05, 0.0, 0.0, 0.0, 1e-05)",-0.033496093750000004,0.16269531250000002,9.80478515625,"(0.01, 0.0, 0.0, 0.0, 0.01, 0.0, 0.0, 0.0, 0.01)"
2025/07/11/14:10:34.812714,116,1752243034,812330504,imu_link,0.0037254393331843903,-0.0084429039141979,-0.9679209697909135,0.2510853136172796,"(0.001, 0.0, 0.0, 0.0, 0.001, 0.0, 0.0, 0.0, 0.001)",0.0,0.0,0.0,"(1e-05, 0.0, 0.0, 0.0, 1e-05, 0.0, 0.0, 0.0, 1e-05)",-0.033496093750000004,0.16269531250000002,9.80478515625,"(0.01, 0.0, 0.0, 0.0, 0.01, 0.0, 0.0, 0.0, 0.01)"
2025/07/11/14:10:34.849061,117,1752243034,848663295,imu_link,0.0037254393331843903,-0.0084429039141979,-0.9679209697909135,0.2510853136172796,"(0.001, 0.0, 0.0, 0.0, 0.001, 0.0, 0.0, 0.0, 0.001)",0.0,0.0,0.0,"(1e-05, 0.0, 0.0, 0.0, 1e-05, 0.0, 0.0, 0.0, 1e-05)",-0.02392578125,0.16748046875,9.814355468750001,"(0.01, 0.0, 0.0, 0.0, 0.01, 0.0, 0.0, 0.0, 0.01)"
2025/07/11/14:10:34.899576,118,1752243034,898963567,imu_link,0.0037254393331843903,-0.0084429039141979,-0.9679209697909135,0.2510853136172796,"(0.001, 0.0, 0.0, 0.0, 0.001, 0.0, 0.0, 0.0, 0.001)",0.0,0.0,0.0,"(1e-05, 0.0, 0.0, 0.0, 1e-05, 0.0, 0.0, 0.0, 1e-05)",-0.02392578125,0.16269531250000002,9.8095703125,"(0.01, 0.0, 0.0, 0.0, 0.01, 0.0, 0.0, 0.0, 0.01)"
2025/07/11/14:10:34.913112,119,1752243034,912568682,imu_link,0.0037254393331843903,-0.0084429039141979,-0.9679209697909135,0.2510853136172796,"(0.001, 0.0, 0.0, 0.0, 0.001, 0.0, 0.0, 0.0, 0.001)",0.0,0.0,0.0,"(1e-05, 0.0, 0.0, 0.0, 1e-05, 0.0, 0.0, 0.0, 1e-05)",-0.02392578125,0.16269531250000002,9.8095703125,"(0.01, 0.0, 0.0, 0.0, 0.01, 0.0, 0.0, 0.0, 0.01)"
2025/07/11/14:10:34.950111,120,1752243034,949631957,imu_link,0.0037254393331843903,-0.0084429039141979,-0.9679209697909135,0.2510853136172796,"(0.001, 0.0, 0.0, 0.0, 0.001, 0.0, 0.0, 0.0, 0.001)",0.0,0.0,0.0,"(1e-05, 0.0, 0.0, 0.0, 1e-05, 0.0, 0.0, 0.0, 1e-05)",-0.02392578125,0.16269531250000002,9.8095703125,"(0.01, 0.0, 0.0, 0.0, 0.01, 0.0, 0.0, 0.0, 0.01)"
2025/07/11/14:10:35.000109,121,1752243034,999690187,imu_link,0.0037254393331843903,-0.0084429039141979,-0.9679209697909135,0.2510853136172796,"(0.001, 0.0, 0.0, 0.0, 0.001, 0.0, 0.0, 0.0, 0.001)",0.0,0.0,0.0,"(1e-05, 0.0, 0.0, 0.0, 1e-05, 0.0, 0.0, 0.0, 1e-05)",-0.033496093750000004,0.15791015625000002,9.814355468750001,"(0.01, 0.0, 0.0, 0.0, 0.01, 0.0, 0.0, 0.0, 0.01)"
2025/07/11/14:10:35.012973,122,1752243035,12384830,imu_link,0.0037254393331843903,-0.0084429039141979,-0.9679209697909135,0.2510853136172796,"(0.001, 0.0, 0.0, 0.0, 0.001, 0.0, 0.0, 0.0, 0.001)",0.0,0.0,0.0,"(1e-05, 0.0, 0.0, 0.0, 1e-05, 0.0, 0.0, 0.0, 1e-05)",-0.033496093750000004,0.15791015625000002,9.814355468750001,"(0.01, 0.0, 0.0, 0.0, 0.01, 0.0, 0.0, 0.0, 0.01)"
2025/07/11/14:10:35.050095,123,1752243035,49665015,imu_link,0.0037254393331843903,-0.0084429039141979,-0.9679209697909135,0.2510853136172796,"(0.001, 0.0, 0.0, 0.0, 0.001, 0.0, 0.0, 0.0, 0.001)",0.0,0.0,0.0,"(1e-05, 0.0, 0.0, 0.0, 1e-05, 0.0, 0.0, 0.0, 1e-05)",-0.033496093750000004,0.16269531250000002,9.80478515625,"(0.01, 0.0, 0.0, 0.0, 0.01, 0.0, 0.0, 0.0, 0.01)"
2025/07/11/14:10:35.100528,124,1752243035,100123704,imu_link,0.0037254393331843903,-0.0084429039141979,-0.9679209697909135,0.2510853136172796,"(0.001, 0.0, 0.0, 0.0, 0.001, 0.0, 0.0, 0.0, 0.001)",0.0,0.0,0.0,"(1e-05, 0.0, 0.0, 0.0, 1e-05, 0.0, 0.0, 0.0, 1e-05)",-0.02392578125,0.16748046875,9.8095703125,"(0.01, 0.0, 0.0, 0.0, 0.01, 0.0, 0.0, 0.0, 0.01)"
2025/07/11/14:10:35.112888,125,1752243035,112349144,imu_link,0.0037254393331843903,-0.0084429039141979,-0.9679209697909135,0.2510853136172796,"(0.001, 0.0, 0.0, 0.0, 0.001, 0.0, 0.0, 0.0, 0.001)",0.0,0.0,0.0,"(1e-05, 0.0, 0.0, 0.0, 1e-05, 0.0, 0.0, 0.0, 1e-05)",-0.02392578125,0.16748046875,9.8095703125,"(0.01, 0.0, 0.0, 0.0, 0.01, 0.0, 0.0, 0.0, 0.01)"
2025/07/11/14:10:35.150661,126,1752243035,150193731,imu_link,0.0037254393331843903,-0.0084429039141979,-0.9679209697909135,0.2510853136172796,"(0.001, 0.0, 0.0, 0.0, 0.001, 0.0, 0.0, 0.0, 0.001)",0.0,0.0,0.0,"(1e-05, 0.0, 0.0, 0.0, 1e-05, 0.0, 0.0, 0.0, 1e-05)",-0.02392578125,0.16748046875,9.8095703125,"(0.01, 0.0, 0.0, 0.0, 0.01, 0.0, 0.0, 0.0, 0.01)"
2025/07/11/14:10:35.201066,127,1752243035,200657371,imu_link,0.0037254393331843903,-0.0084429039141979,-0.9679209697909135,0.2510853136172796,"(0.001, 0.0, 0.0, 0.0, 0.001, 0.0, 0.0, 0.0, 0.001)",0.0,0.0,0.0,"(1e-05, 0.0, 0.0, 0.0, 1e-05, 0.0, 0.0, 0.0, 1e-05)",-0.02392578125,0.16748046875,9.8095703125,"(0.01, 0.0, 0.0, 0.0, 0.01, 0.0, 0.0, 0.0, 0.01)"
2025/07/11/14:10:35.213201,128,1752243035,212636641,imu_link,0.0037254393331843903,-0.0084429039141979,-0.9679209697909135,0.2510853136172796,"(0.001, 0.0, 0.0, 0.0, 0.001, 0.0, 0.0, 0.0, 0.001)",0.0,0.0,0.0,"(1e-05, 0.0, 0.0, 0.0, 1e-05, 0.0, 0.0, 0.0, 1e-05)",-0.02392578125,0.16748046875,9.8095703125,"(0.01, 0.0, 0.0, 0.0, 0.01, 0.0, 0.0, 0.0, 0.01)"
2025/07/11/14:10:35.251059,129,1752243035,250643812,imu_link,0.0037254393331843903,-0.0084429039141979,-0.9679209697909135,0.2510853136172796,"(0.001, 0.0, 0.0, 0.0, 0.001, 0.0, 0.0, 0.0, 0.001)",0.0,0.0,0.0,"(1e-05, 0.0, 0.0, 0.0, 1e-05, 0.0, 0.0, 0.0, 1e-05)",-0.033496093750000004,0.16269531250000002,9.8095703125,"(0.01, 0.0, 0.0, 0.0, 0.01, 0.0, 0.0, 0.0, 0.01)"
2025/07/11/14:10:35.301566,130,1752243035,301135090,imu_link,0.0037254393331843903,-0.0084429039141979,-0.9679209697909135,0.2510853136172796,"(0.001, 0.0, 0.0, 0.0, 0.001, 0.0, 0.0, 0.0, 0.001)",0.0,0.0,0.0,"(1e-05, 0.0, 0.0, 0.0, 1e-05, 0.0, 0.0, 0.0, 1e-05)",-0.028710937500000002,0.15791015625000002,9.814355468750001,"(0.01, 0.0, 0.0, 0.0, 0.01, 0.0, 0.0, 0.0, 0.01)"
2025/07/11/14:10:35.313157,131,1752243035,312539936,imu_link,0.0037254393331843903,-0.0084429039141979,-0.9679209697909135,0.2510853136172796,"(0.001, 0.0, 0.0, 0.0, 0.001, 0.0, 0.0, 0.0, 0.001)",0.0,0.0,0.0,"(1e-05, 0.0, 0.0, 0.0, 1e-05, 0.0, 0.0, 0.0, 1e-05)",-0.028710937500000002,0.15791015625000002,9.814355468750001,"(0.01, 0.0, 0.0, 0.0, 0.01, 0.0, 0.0, 0.0, 0.01)"
2025/07/11/14:10:35.351540,132,1752243035,351127053,imu_link,0.0037254393331843903,-0.0084429039141979,-0.9679209697909135,0.2510853136172796,"(0.001, 0.0, 0.0, 0.0, 0.001, 0.0, 0.0, 0.0, 0.001)",0.0,0.0,0.0,"(1e-05, 0.0, 0.0, 0.0, 1e-05, 0.0, 0.0, 0.0, 1e-05)",-0.028710937500000002,0.16269531250000002,9.8095703125,"(0.01, 0.0, 0.0, 0.0, 0.01, 0.0, 0.0, 0.0, 0.01)"
2025/07/11/14:10:35.402094,133,1752243035,401678106,imu_link,0.0037254393331843903,-0.0084429039141979,-0.9679209697909135,0.2510853136172796,"(0.001, 0.0, 0.0, 0.0, 0.001, 0.0, 0.0, 0.0, 0.001)",0.0,0.0,0.0,"(1e-05, 0.0, 0.0, 0.0, 1e-05, 0.0, 0.0, 0.0, 1e-05)",-0.02392578125,0.16748046875,9.8095703125,"(0.01, 0.0, 0.0, 0.0, 0.01, 0.0, 0.0, 0.0, 0.01)"
2025/07/11/14:10:35.412972,134,1752243035,412355355,imu_link,0.0037254393331843903,-0.0084429039141979,-0.9679209697909135,0.2510853136172796,"(0.001, 0.0, 0.0, 0.0, 0.001, 0.0, 0.0, 0.0, 0.001)",0.0,0.0,0.0,"(1e-05, 0.0, 0.0, 0.0, 1e-05, 0.0, 0.0, 0.0, 1e-05)",-0.02392578125,0.16748046875,9.8095703125,"(0.01, 0.0, 0.0, 0.0, 0.01, 0.0, 0.0, 0.0, 0.01)"
2025/07/11/14:10:35.452030,135,1752243035,451630576,imu_link,0.0037254393331843903,-0.0084429039141979,-0.9679209697909135,0.2510853136172796,"(0.001, 0.0, 0.0, 0.0, 0.001, 0.0, 0.0, 0.0, 0.001)",0.0,0.0,0.0,"(1e-05, 0.0, 0.0, 0.0, 1e-05, 0.0, 0.0, 0.0, 1e-05)",-0.02392578125,0.16748046875,9.8095703125,"(0.01, 0.0, 0.0, 0.0, 0.01, 0.0, 0.0, 0.0, 0.01)"
2025/07/11/14:10:35.502585,136,1752243035,502148459,imu_link,0.0037254393331843903,-0.0084429039141979,-0.9679209697909135,0.2510853136172796,"(0.001, 0.0, 0.0, 0.0, 0.001, 0.0, 0.0, 0.0, 0.001)",0.0,0.0,0.0,"(1e-05, 0.0, 0.0, 0.0, 1e-05, 0.0, 0.0, 0.0, 1e-05)",-0.033496093750000004,0.16269531250000002,9.8095703125,"(0.01, 0.0, 0.0, 0.0, 0.01, 0.0, 0.0, 0.0, 0.01)"
2025/07/11/14:10:35.513093,137,1752243035,512555247,imu_link,0.0037254393331843903,-0.0084429039141979,-0.9679209697909135,0.2510853136172796,"(0.001, 0.0, 0.0, 0.0, 0.001, 0.0, 0.0, 0.0, 0.001)",0.0,0.0,0.0,"(1e-05, 0.0, 0.0, 0.0, 1e-05, 0.0, 0.0, 0.0, 1e-05)",-0.033496093750000004,0.16269531250000002,9.8095703125,"(0.01, 0.0, 0.0, 0.0, 0.01, 0.0, 0.0, 0.0, 0.01)"
2025/07/11/14:10:35.552812,138,1752243035,552140703,imu_link,0.0037254393331843903,-0.0084429039141979,-0.9679209697909135,0.2510853136172796,"(0.001, 0.0, 0.0, 0.0, 0.001, 0.0, 0.0, 0.0, 0.001)",0.0,0.0,0.0,"(1e-05, 0.0, 0.0, 0.0, 1e-05, 0.0, 0.0, 0.0, 1e-05)",-0.033496093750000004,0.15791015625000002,9.8095703125,"(0.01, 0.0, 0.0, 0.0, 0.01, 0.0, 0.0, 0.0, 0.01)"
2025/07/11/14:10:35.603087,139,1752243035,602675993,imu_link,0.0037254393331843903,-0.0084429039141979,-0.9679209697909135,0.2510853136172796,"(0.001, 0.0, 0.0, 0.0, 0.001, 0.0, 0.0, 0.0, 0.001)",0.0,0.0,0.0,"(1e-05, 0.0, 0.0, 0.0, 1e-05, 0.0, 0.0, 0.0, 1e-05)",-0.02392578125,0.16269531250000002,9.8095703125,"(0.01, 0.0, 0.0, 0.0, 0.01, 0.0, 0.0, 0.0, 0.01)"
2025/07/11/14:10:35.613100,140,1752243035,612548211,imu_link,0.0037254393331843903,-0.0084429039141979,-0.9679209697909135,0.2510853136172796,"(0.001, 0.0, 0.0, 0.0, 0.001, 0.0, 0.0, 0.0, 0.001)",0.0,0.0,0.0,"(1e-05, 0.0, 0.0, 0.0, 1e-05, 0.0, 0.0, 0.0, 1e-05)",-0.02392578125,0.16269531250000002,9.8095703125,"(0.01, 0.0, 0.0, 0.0, 0.01, 0.0, 0.0, 0.0, 0.01)"
2025/07/11/14:10:35.653157,141,1752243035,652652854,imu_link,0.0037254393331843903,-0.0084429039141979,-0.9679209697909135,0.2510853136172796,"(0.001, 0.0, 0.0, 0.0, 0.001, 0.0, 0.0, 0.0, 0.001)",0.0,0.0,0.0,"(1e-05, 0.0, 0.0, 0.0, 1e-05, 0.0, 0.0, 0.0, 1e-05)",-0.02392578125,0.16748046875,9.8095703125,"(0.01, 0.0, 0.0, 0.0, 0.01, 0.0, 0.0, 0.0, 0.01)"
2025/07/11/14:10:35.703101,142,1752243035,702829447,imu_link,0.003713403077638602,-0.008396504774936146,-0.9679213734054289,0.2510854919147976,"(0.001, 0.0, 0.0, 0.0, 0.001, 0.0, 0.0, 0.0, 0.001)",0.0,0.0,0.0,"(1e-05, 0.0, 0.0, 0.0, 1e-05, 0.0, 0.0, 0.0, 1e-05)",-0.0478515625,0.16748046875,9.8,"(0.01, 0.0, 0.0, 0.0, 0.01, 0.0, 0.0, 0.0, 0.01)"
2025/07/11/14:10:35.712732,143,1752243035,712320720,imu_link,0.003713403077638602,-0.008396504774936146,-0.9679213734054289,0.2510854919147976,"(0.001, 0.0, 0.0, 0.0, 0.001, 0.0, 0.0, 0.0, 0.001)",0.0,0.0,0.0,"(1e-05, 0.0, 0.0, 0.0, 1e-05, 0.0, 0.0, 0.0, 1e-05)",-0.0478515625,0.16748046875,9.8,"(0.01, 0.0, 0.0, 0.0, 0.01, 0.0, 0.0, 0.0, 0.01)"
2025/07/11/14:10:35.753287,144,1752243035,753045543,imu_link,0.003713403077638602,-0.008396504774936146,-0.9679213734054289,0.2510854919147976,"(0.001, 0.0, 0.0, 0.0, 0.001, 0.0, 0.0, 0.0, 0.001)",0.0,0.0,0.0,"(1e-05, 0.0, 0.0, 0.0, 1e-05, 0.0, 0.0, 0.0, 1e-05)",-0.0095703125,0.153125,9.838281250000001,"(0.01, 0.0, 0.0, 0.0, 0.01, 0.0, 0.0, 0.0, 0.01)"
2025/07/11/14:10:35.803809,145,1752243035,803397677,imu_link,0.0037254393331843903,-0.0084429039141979,-0.9679209697909135,0.2510853136172796,"(0.001, 0.0, 0.0, 0.0, 0.001, 0.0, 0.0, 0.0, 0.001)",0.0,0.0,0.0,"(1e-05, 0.0, 0.0, 0.0, 1e-05, 0.0, 0.0, 0.0, 1e-05)",-0.02392578125,0.16748046875,9.78564453125,"(0.01, 0.0, 0.0, 0.0, 0.01, 0.0, 0.0, 0.0, 0.01)"
2025/07/11/14:10:35.812778,146,1752243035,812341754,imu_link,0.003713403077638602,-0.008396504774936146,-0.9679213734054289,0.2510854919147976,"(0.001, 0.0, 0.0, 0.0, 0.001, 0.0, 0.0, 0.0, 0.001)",0.0,0.0,0.0,"(1e-05, 0.0, 0.0, 0.0, 1e-05, 0.0, 0.0, 0.0, 1e-05)",-0.02392578125,0.16748046875,9.78564453125,"(0.01, 0.0, 0.0, 0.0, 0.01, 0.0, 0.0, 0.0, 0.01)"
2025/07/11/14:10:35.854008,147,1752243035,853646783,imu_link,0.003713403077638602,-0.008396504774936146,-0.9679213734054289,0.2510854919147976,"(0.001, 0.0, 0.0, 0.0, 0.001, 0.0, 0.0, 0.0, 0.001)",0.0,0.0,0.0,"(1e-05, 0.0, 0.0, 0.0, 1e-05, 0.0, 0.0, 0.0, 1e-05)",-0.033496093750000004,0.15791015625000002,9.82392578125,"(0.01, 0.0, 0.0, 0.0, 0.01, 0.0, 0.0, 0.0, 0.01)"
2025/07/11/14:10:35.904422,148,1752243035,903891700,imu_link,0.003713403077638602,-0.008396504774936146,-0.9679213734054289,0.2510854919147976,"(0.001, 0.0, 0.0, 0.0, 0.001, 0.0, 0.0, 0.0, 0.001)",0.0,0.0,0.0,"(1e-05, 0.0, 0.0, 0.0, 1e-05, 0.0, 0.0, 0.0, 1e-05)",-0.033496093750000004,0.16748046875,9.8095703125,"(0.01, 0.0, 0.0, 0.0, 0.01, 0.0, 0.0, 0.0, 0.01)"
2025/07/11/14:10:35.912808,149,1752243035,912335420,imu_link,0.003713403077638602,-0.008396504774936146,-0.9679213734054289,0.2510854919147976,"(0.001, 0.0, 0.0, 0.0, 0.001, 0.0, 0.0, 0.0, 0.001)",0.0,0.0,0.0,"(1e-05, 0.0, 0.0, 0.0, 1e-05, 0.0, 0.0, 0.0, 1e-05)",-0.033496093750000004,0.16748046875,9.8095703125,"(0.01, 0.0, 0.0, 0.0, 0.01, 0.0, 0.0, 0.0, 0.01)"
2025/07/11/14:10:35.954472,150,1752243035,954078124,imu_link,0.003713403077638602,-0.008396504774936146,-0.9679213734054289,0.2510854919147976,"(0.001, 0.0, 0.0, 0.0, 0.001, 0.0, 0.0, 0.0, 0.001)",0.0,0.0,0.0,"(1e-05, 0.0, 0.0, 0.0, 1e-05, 0.0, 0.0, 0.0, 1e-05)",-0.03828125,0.16748046875,9.80478515625,"(0.01, 0.0, 0.0, 0.0, 0.01, 0.0, 0.0, 0.0, 0.01)"
2025/07/11/14:10:36.004917,151,1752243036,4509664,imu_link,0.003713403077638602,-0.008396504774936146,-0.9679213734054289,0.2510854919147976,"(0.001, 0.0, 0.0, 0.0, 0.001, 0.0, 0.0, 0.0, 0.001)",0.0,0.0,0.0,"(1e-05, 0.0, 0.0, 0.0, 1e-05, 0.0, 0.0, 0.0, 1e-05)",-0.014355468750000001,0.16269531250000002,9.8095703125,"(0.01, 0.0, 0.0, 0.0, 0.01, 0.0, 0.0, 0.0, 0.01)"
2025/07/11/14:10:36.012710,152,1752243036,12325822,imu_link,0.003713403077638602,-0.008396504774936146,-0.9679213734054289,0.2510854919147976,"(0.001, 0.0, 0.0, 0.0, 0.001, 0.0, 0.0, 0.0, 0.001)",0.0,0.0,0.0,"(1e-05, 0.0, 0.0, 0.0, 1e-05, 0.0, 0.0, 0.0, 1e-05)",-0.014355468750000001,0.16269531250000002,9.8095703125,"(0.01, 0.0, 0.0, 0.0, 0.01, 0.0, 0.0, 0.0, 0.01)"
2025/07/11/14:10:36.054985,153,1752243036,54672761,imu_link,0.003713403077638602,-0.008396504774936146,-0.9679213734054289,0.2510854919147976,"(0.001, 0.0, 0.0, 0.0, 0.001, 0.0, 0.0, 0.0, 0.001)",0.0,0.0,0.0,"(1e-05, 0.0, 0.0, 0.0, 1e-05, 0.0, 0.0, 0.0, 1e-05)",-0.033496093750000004,0.16269531250000002,9.8095703125,"(0.01, 0.0, 0.0, 0.0, 0.01, 0.0, 0.0, 0.0, 0.01)"
2025/07/11/14:10:36.105590,154,1752243036,105161806,imu_link,0.003713403077638602,-0.008396504774936146,-0.9679213734054289,0.2510854919147976,"(0.001, 0.0, 0.0, 0.0, 0.001, 0.0, 0.0, 0.0, 0.001)",0.0,0.0,0.0,"(1e-05, 0.0, 0.0, 0.0, 1e-05, 0.0, 0.0, 0.0, 1e-05)",-0.033496093750000004,0.16269531250000002,9.814355468750001,"(0.01, 0.0, 0.0, 0.0, 0.01, 0.0, 0.0, 0.0, 0.01)"
2025/07/11/14:10:36.113189,155,1752243036,112602110,imu_link,0.003713403077638602,-0.008396504774936146,-0.9679213734054289,0.2510854919147976,"(0.001, 0.0, 0.0, 0.0, 0.001, 0.0, 0.0, 0.0, 0.001)",0.0,0.0,0.0,"(1e-05, 0.0, 0.0, 0.0, 1e-05, 0.0, 0.0, 0.0, 1e-05)",-0.033496093750000004,0.16269531250000002,9.814355468750001,"(0.01, 0.0, 0.0, 0.0, 0.01, 0.0, 0.0, 0.0, 0.01)"
2025/07/11/14:10:36.155572,156,1752243036,155186441,imu_link,0.003713403077638602,-0.008396504774936146,-0.9679213734054289,0.2510854919147976,"(0.001, 0.0, 0.0, 0.0, 0.001, 0.0, 0.0, 0.0, 0.001)",0.0,0.0,0.0,"(1e-05, 0.0, 0.0, 0.0, 1e-05, 0.0, 0.0, 0.0, 1e-05)",-0.033496093750000004,0.16269531250000002,9.8095703125,"(0.01, 0.0, 0.0, 0.0, 0.01, 0.0, 0.0, 0.0, 0.01)"
2025/07/11/14:10:36.206121,157,1752243036,205684225,imu_link,0.003713403077638602,-0.008396504774936146,-0.9679213734054289,0.2510854919147976,"(0.001, 0.0, 0.0, 0.0, 0.001, 0.0, 0.0, 0.0, 0.001)",0.0,0.0,0.0,"(1e-05, 0.0, 0.0, 0.0, 1e-05, 0.0, 0.0, 0.0, 1e-05)",-0.028710937500000002,0.16269531250000002,9.814355468750001,"(0.01, 0.0, 0.0, 0.0, 0.01, 0.0, 0.0, 0.0, 0.01)"
2025/07/11/14:10:36.212916,158,1752243036,212385147,imu_link,0.003713403077638602,-0.008396504774936146,-0.9679213734054289,0.2510854919147976,"(0.001, 0.0, 0.0, 0.0, 0.001, 0.0, 0.0, 0.0, 0.001)",0.0,0.0,0.0,"(1e-05, 0.0, 0.0, 0.0, 1e-05, 0.0, 0.0, 0.0, 1e-05)",-0.028710937500000002,0.16269531250000002,9.814355468750001,"(0.01, 0.0, 0.0, 0.0, 0.01, 0.0, 0.0, 0.0, 0.01)"
2025/07/11/14:10:36.256198,159,1752243036,255713730,imu_link,0.003713403077638602,-0.008396504774936146,-0.9679213734054289,0.2510854919147976,"(0.001, 0.0, 0.0, 0.0, 0.001, 0.0, 0.0, 0.0, 0.001)",0.0,0.0,0.0,"(1e-05, 0.0, 0.0, 0.0, 1e-05, 0.0, 0.0, 0.0, 1e-05)",-0.02392578125,0.16748046875,9.8095703125,"(0.01, 0.0, 0.0, 0.0, 0.01, 0.0, 0.0, 0.0, 0.01)"
2025/07/11/14:10:36.306798,160,1752243036,306337650,imu_link,0.003713403077638602,-0.008396504774936146,-0.9679213734054289,0.2510854919147976,"(0.001, 0.0, 0.0, 0.0, 0.001, 0.0, 0.0, 0.0, 0.001)",0.0,0.0,0.0,"(1e-05, 0.0, 0.0, 0.0, 1e-05, 0.0, 0.0, 0.0, 1e-05)",-0.033496093750000004,0.16748046875,9.8095703125,"(0.01, 0.0, 0.0, 0.0, 0.01, 0.0, 0.0, 0.0, 0.01)"
2025/07/11/14:10:36.313141,161,1752243036,312576306,imu_link,0.003713403077638602,-0.008396504774936146,-0.9679213734054289,0.2510854919147976,"(0.001, 0.0, 0.0, 0.0, 0.001, 0.0, 0.0, 0.0, 0.001)",0.0,0.0,0.0,"(1e-05, 0.0, 0.0, 0.0, 1e-05, 0.0, 0.0, 0.0, 1e-05)",-0.033496093750000004,0.16748046875,9.8095703125,"(0.01, 0.0, 0.0, 0.0, 0.01, 0.0, 0.0, 0.0, 0.01)"
2025/07/11/14:10:36.357063,162,1752243036,356659652,imu_link,0.003713403077638602,-0.008396504774936146,-0.9679213734054289,0.2510854919147976,"(0.001, 0.0, 0.0, 0.0, 0.001, 0.0, 0.0, 0.0, 0.001)",0.0,0.0,0.0,"(1e-05, 0.0, 0.0, 0.0, 1e-05, 0.0, 0.0, 0.0, 1e-05)",-0.028710937500000002,0.16269531250000002,9.8095703125,"(0.01, 0.0, 0.0, 0.0, 0.01, 0.0, 0.0, 0.0, 0.01)"
2025/07/11/14:10:36.407152,163,1752243036,406686963,imu_link,0.003713403077638602,-0.008396504774936146,-0.9679213734054289,0.2510854919147976,"(0.001, 0.0, 0.0, 0.0, 0.001, 0.0, 0.0, 0.0, 0.001)",0.0,0.0,0.0,"(1e-05, 0.0, 0.0, 0.0, 1e-05, 0.0, 0.0, 0.0, 1e-05)",-0.028710937500000002,0.15791015625000002,9.8095703125,"(0.01, 0.0, 0.0, 0.0, 0.01, 0.0, 0.0, 0.0, 0.01)"
2025/07/11/14:10:36.412858,164,1752243036,412371418,imu_link,0.003713403077638602,-0.008396504774936146,-0.9679213734054289,0.2510854919147976,"(0.001, 0.0, 0.0, 0.0, 0.001, 0.0, 0.0, 0.0, 0.001)",0.0,0.0,0.0,"(1e-05, 0.0, 0.0, 0.0, 1e-05, 0.0, 0.0, 0.0, 1e-05)",-0.028710937500000002,0.15791015625000002,9.8095703125,"(0.01, 0.0, 0.0, 0.0, 0.01, 0.0, 0.0, 0.0, 0.01)"
2025/07/11/14:10:36.457377,165,1752243036,456968510,imu_link,0.003713403077638602,-0.008396504774936146,-0.9679213734054289,0.2510854919147976,"(0.001, 0.0, 0.0, 0.0, 0.001, 0.0, 0.0, 0.0, 0.001)",0.0,0.0,0.0,"(1e-05, 0.0, 0.0, 0.0, 1e-05, 0.0, 0.0, 0.0, 1e-05)",-0.028710937500000002,0.16269531250000002,9.8095703125,"(0.01, 0.0, 0.0, 0.0, 0.01, 0.0, 0.0, 0.0, 0.01)"
2025/07/11/14:10:36.507515,166,1752243036,507043150,imu_link,0.003713403077638602,-0.008396504774936146,-0.9679213734054289,0.2510854919147976,"(0.001, 0.0, 0.0, 0.0, 0.001, 0.0, 0.0, 0.0, 0.001)",0.0,0.0,0.0,"(1e-05, 0.0, 0.0, 0.0, 1e-05, 0.0, 0.0, 0.0, 1e-05)",-0.02392578125,0.16748046875,9.8095703125,"(0.01, 0.0, 0.0, 0.0, 0.01, 0.0, 0.0, 0.0, 0.01)"
2025/07/11/14:10:36.513134,167,1752243036,512574192,imu_link,0.003713403077638602,-0.008396504774936146,-0.9679213734054289,0.2510854919147976,"(0.001, 0.0, 0.0, 0.0, 0.001, 0.0, 0.0, 0.0, 0.001)",0.0,0.0,0.0,"(1e-05, 0.0, 0.0, 0.0, 1e-05, 0.0, 0.0, 0.0, 1e-05)",-0.02392578125,0.16748046875,9.8095703125,"(0.01, 0.0, 0.0, 0.0, 0.01, 0.0, 0.0, 0.0, 0.01)"
2025/07/11/14:10:36.557688,168,1752243036,557305396,imu_link,0.003713403077638602,-0.008396504774936146,-0.9679213734054289,0.2510854919147976,"(0.001, 0.0, 0.0, 0.0, 0.001, 0.0, 0.0, 0.0, 0.001)",0.0,0.0,0.0,"(1e-05, 0.0, 0.0, 0.0, 1e-05, 0.0, 0.0, 0.0, 1e-05)",-0.03828125,0.172265625,9.8095703125,"(0.01, 0.0, 0.0, 0.0, 0.01, 0.0, 0.0, 0.0, 0.01)"
2025/07/11/14:10:36.608015,169,1752243036,607557862,imu_link,0.003713403077638602,-0.008396504774936146,-0.9679213734054289,0.2510854919147976,"(0.001, 0.0, 0.0, 0.0, 0.001, 0.0, 0.0, 0.0, 0.001)",0.0,0.0,0.0,"(1e-05, 0.0, 0.0, 0.0, 1e-05, 0.0, 0.0, 0.0, 1e-05)",-0.03828125,0.16269531250000002,9.8095703125,"(0.01, 0.0, 0.0, 0.0, 0.01, 0.0, 0.0, 0.0, 0.01)"
2025/07/11/14:10:36.612877,170,1752243036,612371729,imu_link,0.003713403077638602,-0.008396504774936146,-0.9679213734054289,0.2510854919147976,"(0.001, 0.0, 0.0, 0.0, 0.001, 0.0, 0.0, 0.0, 0.001)",0.0,0.0,0.0,"(1e-05, 0.0, 0.0, 0.0, 1e-05, 0.0, 0.0, 0.0, 1e-05)",-0.03828125,0.16269531250000002,9.8095703125,"(0.01, 0.0, 0.0, 0.0, 0.01, 0.0, 0.0, 0.0, 0.01)"
2025/07/11/14:10:36.658200,171,1752243036,657788592,imu_link,0.003713403077638602,-0.008396504774936146,-0.9679213734054289,0.2510854919147976,"(0.001, 0.0, 0.0, 0.0, 0.001, 0.0, 0.0, 0.0, 0.001)",0.0,0.0,0.0,"(1e-05, 0.0, 0.0, 0.0, 1e-05, 0.0, 0.0, 0.0, 1e-05)",-0.033496093750000004,0.15791015625000002,9.8095703125,"(0.01, 0.0, 0.0, 0.0, 0.01, 0.0, 0.0, 0.0, 0.01)"
2025/07/11/14:10:36.708349,172,1752243036,707932939,imu_link,0.003713403077638602,-0.008396504774936146,-0.9679213734054289,0.2510854919147976,"(0.001, 0.0, 0.0, 0.0, 0.001, 0.0, 0.0, 0.0, 0.001)",0.0,0.0,0.0,"(1e-05, 0.0, 0.0, 0.0, 1e-05, 0.0, 0.0, 0.0, 1e-05)",-0.028710937500000002,0.16748046875,9.8095703125,"(0.01, 0.0, 0.0, 0.0, 0.01, 0.0, 0.0, 0.0, 0.01)"
2025/07/11/14:10:36.712692,173,1752243036,712334716,imu_link,0.003713403077638602,-0.008396504774936146,-0.9679213734054289,0.2510854919147976,"(0.001, 0.0, 0.0, 0.0, 0.001, 0.0, 0.0, 0.0, 0.001)",0.0,0.0,0.0,"(1e-05, 0.0, 0.0, 0.0, 1e-05, 0.0, 0.0, 0.0, 1e-05)",-0.028710937500000002,0.16748046875,9.8095703125,"(0.01, 0.0, 0.0, 0.0, 0.01, 0.0, 0.0, 0.0, 0.01)"
2025/07/11/14:10:36.758582,174,1752243036,758205267,imu_link,0.003713403077638602,-0.008396504774936146,-0.9679213734054289,0.2510854919147976,"(0.001, 0.0, 0.0, 0.0, 0.001, 0.0, 0.0, 0.0, 0.001)",0.0,0.0,0.0,"(1e-05, 0.0, 0.0, 0.0, 1e-05, 0.0, 0.0, 0.0, 1e-05)",-0.02392578125,0.16748046875,9.8095703125,"(0.01, 0.0, 0.0, 0.0, 0.01, 0.0, 0.0, 0.0, 0.01)"
2025/07/11/14:10:36.809175,175,1752243036,808753948,imu_link,0.0037598018981507943,-0.008384467256040258,-0.9679214124003799,0.25108505334920445,"(0.001, 0.0, 0.0, 0.0, 0.001, 0.0, 0.0, 0.0, 0.001)",0.0,0.0,0.0,"(1e-05, 0.0, 0.0, 0.0, 1e-05, 0.0, 0.0, 0.0, 1e-05)",-0.028710937500000002,0.16269531250000002,9.8095703125,"(0.01, 0.0, 0.0, 0.0, 0.01, 0.0, 0.0, 0.0, 0.01)"
2025/07/11/14:10:36.812896,176,1752243036,812412936,imu_link,0.003713403077638602,-0.008396504774936146,-0.9679213734054289,0.2510854919147976,"(0.001, 0.0, 0.0, 0.0, 0.001, 0.0, 0.0, 0.0, 0.001)",0.0,0.0,0.0,"(1e-05, 0.0, 0.0, 0.0, 1e-05, 0.0, 0.0, 0.0, 1e-05)",-0.028710937500000002,0.16269531250000002,9.8095703125,"(0.01, 0.0, 0.0, 0.0, 0.01, 0.0, 0.0, 0.0, 0.01)"
2025/07/11/14:10:36.859169,177,1752243036,858756736,imu_link,0.003713403077638602,-0.008396504774936146,-0.9679213734054289,0.2510854919147976,"(0.001, 0.0, 0.0, 0.0, 0.001, 0.0, 0.0, 0.0, 0.001)",0.0,0.0,0.0,"(1e-05, 0.0, 0.0, 0.0, 1e-05, 0.0, 0.0, 0.0, 1e-05)",-0.033496093750000004,0.15791015625000002,9.8095703125,"(0.01, 0.0, 0.0, 0.0, 0.01, 0.0, 0.0, 0.0, 0.01)"
2025/07/11/14:10:36.909722,178,1752243036,909272729,imu_link,0.003713403077638602,-0.008396504774936146,-0.9679213734054289,0.2510854919147976,"(0.001, 0.0, 0.0, 0.0, 0.001, 0.0, 0.0, 0.0, 0.001)",0.0,0.0,0.0,"(1e-05, 0.0, 0.0, 0.0, 1e-05, 0.0, 0.0, 0.0, 1e-05)",-0.033496093750000004,0.15791015625000002,9.814355468750001,"(0.01, 0.0, 0.0, 0.0, 0.01, 0.0, 0.0, 0.0, 0.01)"
2025/07/11/14:10:36.913067,179,1752243036,912529939,imu_link,0.003713403077638602,-0.008396504774936146,-0.9679213734054289,0.2510854919147976,"(0.001, 0.0, 0.0, 0.0, 0.001, 0.0, 0.0, 0.0, 0.001)",0.0,0.0,0.0,"(1e-05, 0.0, 0.0, 0.0, 1e-05, 0.0, 0.0, 0.0, 1e-05)",-0.033496093750000004,0.15791015625000002,9.814355468750001,"(0.01, 0.0, 0.0, 0.0, 0.01, 0.0, 0.0, 0.0, 0.01)"
2025/07/11/14:10:36.959631,180,1752243036,959226704,imu_link,0.003713403077638602,-0.008396504774936146,-0.9679213734054289,0.2510854919147976,"(0.001, 0.0, 0.0, 0.0, 0.001, 0.0, 0.0, 0.0, 0.001)",0.0,0.0,0.0,"(1e-05, 0.0, 0.0, 0.0, 1e-05, 0.0, 0.0, 0.0, 1e-05)",-0.028710937500000002,0.16269531250000002,9.8095703125,"(0.01, 0.0, 0.0, 0.0, 0.01, 0.0, 0.0, 0.0, 0.01)"
2025/07/11/14:10:37.010261,181,1752243037,9782184,imu_link,0.0037598018981507943,-0.008384467256040258,-0.9679214124003799,0.25108505334920445,"(0.001, 0.0, 0.0, 0.0, 0.001, 0.0, 0.0, 0.0, 0.001)",0.0,0.0,0.0,"(1e-05, 0.0, 0.0, 0.0, 1e-05, 0.0, 0.0, 0.0, 1e-05)",-0.02392578125,0.16748046875,9.80478515625,"(0.01, 0.0, 0.0, 0.0, 0.01, 0.0, 0.0, 0.0, 0.01)"
2025/07/11/14:10:37.012594,182,1752243037,12321145,imu_link,0.0037598018981507943,-0.008384467256040258,-0.9679214124003799,0.25108505334920445,"(0.001, 0.0, 0.0, 0.0, 0.001, 0.0, 0.0, 0.0, 0.001)",0.0,0.0,0.0,"(1e-05, 0.0, 0.0, 0.0, 1e-05, 0.0, 0.0, 0.0, 1e-05)",-0.02392578125,0.16748046875,9.80478515625,"(0.01, 0.0, 0.0, 0.0, 0.01, 0.0, 0.0, 0.0, 0.01)"
2025/07/11/14:10:37.060354,183,1752243037,59809277,imu_link,0.0037598018981507943,-0.008384467256040258,-0.9679214124003799,0.25108505334920445,"(0.001, 0.0, 0.0, 0.0, 0.001, 0.0, 0.0, 0.0, 0.001)",0.0,0.0,0.0,"(1e-05, 0.0, 0.0, 0.0, 1e-05, 0.0, 0.0, 0.0, 1e-05)",-0.028710937500000002,0.16748046875,9.8095703125,"(0.01, 0.0, 0.0, 0.0, 0.01, 0.0, 0.0, 0.0, 0.01)"
2025/07/11/14:10:37.110821,184,1752243037,110255756,imu_link,0.003713403077638602,-0.008396504774936146,-0.9679213734054289,0.2510854919147976,"(0.001, 0.0, 0.0, 0.0, 0.001, 0.0, 0.0, 0.0, 0.001)",0.0,0.0,0.0,"(1e-05, 0.0, 0.0, 0.0, 1e-05, 0.0, 0.0, 0.0, 1e-05)",-0.028710937500000002,0.15791015625000002,9.814355468750001,"(0.01, 0.0, 0.0, 0.0, 0.01, 0.0, 0.0, 0.0, 0.01)"
2025/07/11/14:10:37.112591,185,1752243037,112321326,imu_link,0.003713403077638602,-0.008396504774936146,-0.9679213734054289,0.2510854919147976,"(0.001, 0.0, 0.0, 0.0, 0.001, 0.0, 0.0, 0.0, 0.001)",0.0,0.0,0.0,"(1e-05, 0.0, 0.0, 0.0, 1e-05, 0.0, 0.0, 0.0, 1e-05)",-0.028710937500000002,0.15791015625000002,9.814355468750001,"(0.01, 0.0, 0.0, 0.0, 0.01, 0.0, 0.0, 0.0, 0.01)"
2025/07/11/14:10:37.160927,186,1752243037,160442886,imu_link,0.003713403077638602,-0.008396504774936146,-0.9679213734054289,0.2510854919147976,"(0.001, 0.0, 0.0, 0.0, 0.001, 0.0, 0.0, 0.0, 0.001)",0.0,0.0,0.0,"(1e-05, 0.0, 0.0, 0.0, 1e-05, 0.0, 0.0, 0.0, 1e-05)",-0.028710937500000002,0.16269531250000002,9.8095703125,"(0.01, 0.0, 0.0, 0.0, 0.01, 0.0, 0.0, 0.0, 0.01)"
2025/07/11/14:10:37.211037,187,1752243037,210504622,imu_link,0.003713403077638602,-0.008396504774936146,-0.9679213734054289,0.2510854919147976,"(0.001, 0.0, 0.0, 0.0, 0.001, 0.0, 0.0, 0.0, 0.001)",0.0,0.0,0.0,"(1e-05, 0.0, 0.0, 0.0, 1e-05, 0.0, 0.0, 0.0, 1e-05)",-0.02392578125,0.16269531250000002,9.8095703125,"(0.01, 0.0, 0.0, 0.0, 0.01, 0.0, 0.0, 0.0, 0.01)"
2025/07/11/14:10:37.212615,188,1752243037,212324665,imu_link,0.003713403077638602,-0.008396504774936146,-0.9679213734054289,0.2510854919147976,"(0.001, 0.0, 0.0, 0.0, 0.001, 0.0, 0.0, 0.0, 0.001)",0.0,0.0,0.0,"(1e-05, 0.0, 0.0, 0.0, 1e-05, 0.0, 0.0, 0.0, 1e-05)",-0.02392578125,0.16269531250000002,9.8095703125,"(0.01, 0.0, 0.0, 0.0, 0.01, 0.0, 0.0, 0.0, 0.01)"
2025/07/11/14:10:37.261212,189,1752243037,260742009,imu_link,0.003713403077638602,-0.008396504774936146,-0.9679213734054289,0.2510854919147976,"(0.001, 0.0, 0.0, 0.0, 0.001, 0.0, 0.0, 0.0, 0.001)",0.0,0.0,0.0,"(1e-05, 0.0, 0.0, 0.0, 1e-05, 0.0, 0.0, 0.0, 1e-05)",-0.02392578125,0.16269531250000002,9.8095703125,"(0.01, 0.0, 0.0, 0.0, 0.01, 0.0, 0.0, 0.0, 0.01)"
2025/07/11/14:10:37.311782,190,1752243037,311226296,imu_link,0.003713403077638602,-0.008396504774936146,-0.9679213734054289,0.2510854919147976,"(0.001, 0.0, 0.0, 0.0, 0.001, 0.0, 0.0, 0.0, 0.001)",0.0,0.0,0.0,"(1e-05, 0.0, 0.0, 0.0, 1e-05, 0.0, 0.0, 0.0, 1e-05)",-0.02392578125,0.16269531250000002,9.8095703125,"(0.01, 0.0, 0.0, 0.0, 0.01, 0.0, 0.0, 0.0, 0.01)"
2025/07/11/14:10:37.312571,191,1752243037,312318161,imu_link,0.003713403077638602,-0.008396504774936146,-0.9679213734054289,0.2510854919147976,"(0.001, 0.0, 0.0, 0.0, 0.001, 0.0, 0.0, 0.0, 0.001)",0.0,0.0,0.0,"(1e-05, 0.0, 0.0, 0.0, 1e-05, 0.0, 0.0, 0.0, 1e-05)",-0.02392578125,0.16269531250000002,9.8095703125,"(0.01, 0.0, 0.0, 0.0, 0.01, 0.0, 0.0, 0.0, 0.01)"
2025/07/11/14:10:37.361843,192,1752243037,361316281,imu_link,0.003713403077638602,-0.008396504774936146,-0.9679213734054289,0.2510854919147976,"(0.001, 0.0, 0.0, 0.0, 0.001, 0.0, 0.0, 0.0, 0.001)",0.0,0.0,0.0,"(1e-05, 0.0, 0.0, 0.0, 1e-05, 0.0, 0.0, 0.0, 1e-05)",-0.028710937500000002,0.16269531250000002,9.8095703125,"(0.01, 0.0, 0.0, 0.0, 0.01, 0.0, 0.0, 0.0, 0.01)"
2025/07/11/14:10:37.412276,193,1752243037,411705509,imu_link,0.003713403077638602,-0.008396504774936146,-0.9679213734054289,0.2510854919147976,"(0.001, 0.0, 0.0, 0.0, 0.001, 0.0, 0.0, 0.0, 0.001)",0.0,0.0,0.0,"(1e-05, 0.0, 0.0, 0.0, 1e-05, 0.0, 0.0, 0.0, 1e-05)",-0.028710937500000002,0.16269531250000002,9.8095703125,"(0.01, 0.0, 0.0, 0.0, 0.01, 0.0, 0.0, 0.0, 0.01)"
2025/07/11/14:10:37.412595,194,1752243037,412327402,imu_link,0.003713403077638602,-0.008396504774936146,-0.9679213734054289,0.2510854919147976,"(0.001, 0.0, 0.0, 0.0, 0.001, 0.0, 0.0, 0.0, 0.001)",0.0,0.0,0.0,"(1e-05, 0.0, 0.0, 0.0, 1e-05, 0.0, 0.0, 0.0, 1e-05)",-0.028710937500000002,0.16269531250000002,9.8095703125,"(0.01, 0.0, 0.0, 0.0, 0.01, 0.0, 0.0, 0.0, 0.01)"
2025/07/11/14:10:37.462228,195,1752243037,461718762,imu_link,0.003713403077638602,-0.008396504774936146,-0.9679213734054289,0.2510854919147976,"(0.001, 0.0, 0.0, 0.0, 0.001, 0.0, 0.0, 0.0, 0.001)",0.0,0.0,0.0,"(1e-05, 0.0, 0.0, 0.0, 1e-05, 0.0, 0.0, 0.0, 1e-05)",-0.02392578125,0.16269531250000002,9.8095703125,"(0.01, 0.0, 0.0, 0.0, 0.01, 0.0, 0.0, 0.0, 0.01)"
2025/07/11/14:10:37.512769,196,1752243037,512215556,imu_link,0.003713403077638602,-0.008396504774936146,-0.9679213734054289,0.2510854919147976,"(0.001, 0.0, 0.0, 0.0, 0.001, 0.0, 0.0, 0.0, 0.001)",0.0,0.0,0.0,"(1e-05, 0.0, 0.0, 0.0, 1e-05, 0.0, 0.0, 0.0, 1e-05)",-0.028710937500000002,0.16269531250000002,9.8095703125,"(0.01, 0.0, 0.0, 0.0, 0.01, 0.0, 0.0, 0.0, 0.01)"
2025/07/11/14:10:37.512815,197,1752243037,512330178,imu_link,0.003713403077638602,-0.008396504774936146,-0.9679213734054289,0.2510854919147976,"(0.001, 0.0, 0.0, 0.0, 0.001, 0.0, 0.0, 0.0, 0.001)",0.0,0.0,0.0,"(1e-05, 0.0, 0.0, 0.0, 1e-05, 0.0, 0.0, 0.0, 1e-05)",-0.028710937500000002,0.16269531250000002,9.8095703125,"(0.01, 0.0, 0.0, 0.0, 0.01, 0.0, 0.0, 0.0, 0.01)"
2025/07/11/14:10:37.562814,198,1752243037,562336849,imu_link,0.003713403077638602,-0.008396504774936146,-0.9679213734054289,0.2510854919147976,"(0.001, 0.0, 0.0, 0.0, 0.001, 0.0, 0.0, 0.0, 0.001)",0.0,0.0,0.0,"(1e-05, 0.0, 0.0, 0.0, 1e-05, 0.0, 0.0, 0.0, 1e-05)",-0.028710937500000002,0.16269531250000002,9.8095703125,"(0.01, 0.0, 0.0, 0.0, 0.01, 0.0, 0.0, 0.0, 0.01)"
2025/07/11/14:10:37.613016,199,1752243037,612465997,imu_link,0.003713403077638602,-0.008396504774936146,-0.9679213734054289,0.2510854919147976,"(0.001, 0.0, 0.0, 0.0, 0.001, 0.0, 0.0, 0.0, 0.001)",0.0,0.0,0.0,"(1e-05, 0.0, 0.0, 0.0, 1e-05, 0.0, 0.0, 0.0, 1e-05)",-0.028710937500000002,0.16269531250000002,9.8095703125,"(0.01, 0.0, 0.0, 0.0, 0.01, 0.0, 0.0, 0.0, 0.01)"
2025/07/11/14:10:37.613067,200,1752243037,612701073,imu_link,0.003713403077638602,-0.008396504774936146,-0.9679213734054289,0.2510854919147976,"(0.001, 0.0, 0.0, 0.0, 0.001, 0.0, 0.0, 0.0, 0.001)",0.0,0.0,0.0,"(1e-05, 0.0, 0.0, 0.0, 1e-05, 0.0, 0.0, 0.0, 1e-05)",-0.028710937500000002,0.16269531250000002,9.8095703125,"(0.01, 0.0, 0.0, 0.0, 0.01, 0.0, 0.0, 0.0, 0.01)"
2025/07/11/14:10:37.663252,201,1752243037,662806711,imu_link,0.003713403077638602,-0.008396504774936146,-0.9679213734054289,0.2510854919147976,"(0.001, 0.0, 0.0, 0.0, 0.001, 0.0, 0.0, 0.0, 0.001)",0.0,0.0,0.0,"(1e-05, 0.0, 0.0, 0.0, 1e-05, 0.0, 0.0, 0.0, 1e-05)",-0.033496093750000004,0.16269531250000002,9.8095703125,"(0.01, 0.0, 0.0, 0.0, 0.01, 0.0, 0.0, 0.0, 0.01)"
2025/07/11/14:10:37.713203,202,1752243037,712558343,imu_link,0.003713403077638602,-0.008396504774936146,-0.9679213734054289,0.2510854919147976,"(0.001, 0.0, 0.0, 0.0, 0.001, 0.0, 0.0, 0.0, 0.001)",0.0,0.0,0.0,"(1e-05, 0.0, 0.0, 0.0, 1e-05, 0.0, 0.0, 0.0, 1e-05)",-0.033496093750000004,0.16269531250000002,9.8095703125,"(0.01, 0.0, 0.0, 0.0, 0.01, 0.0, 0.0, 0.0, 0.01)"
2025/07/11/14:10:37.713231,203,1752243037,712933344,imu_link,0.003713403077638602,-0.008396504774936146,-0.9679213734054289,0.2510854919147976,"(0.001, 0.0, 0.0, 0.0, 0.001, 0.0, 0.0, 0.0, 0.001)",0.0,0.0,0.0,"(1e-05, 0.0, 0.0, 0.0, 1e-05, 0.0, 0.0, 0.0, 1e-05)",-0.028710937500000002,0.16269531250000002,9.8095703125,"(0.01, 0.0, 0.0, 0.0, 0.01, 0.0, 0.0, 0.0, 0.01)"
2025/07/11/14:10:37.763661,204,1752243037,763207529,imu_link,0.003713403077638602,-0.008396504774936146,-0.9679213734054289,0.2510854919147976,"(0.001, 0.0, 0.0, 0.0, 0.001, 0.0, 0.0, 0.0, 0.001)",0.0,0.0,0.0,"(1e-05, 0.0, 0.0, 0.0, 1e-05, 0.0, 0.0, 0.0, 1e-05)",-0.02392578125,0.16269531250000002,9.8095703125,"(0.01, 0.0, 0.0, 0.0, 0.01, 0.0, 0.0, 0.0, 0.01)"
2025/07/11/14:10:37.813034,205,1752243037,812546859,imu_link,0.003713403077638602,-0.008396504774936146,-0.9679213734054289,0.2510854919147976,"(0.001, 0.0, 0.0, 0.0, 0.001, 0.0, 0.0, 0.0, 0.001)",0.0,0.0,0.0,"(1e-05, 0.0, 0.0, 0.0, 1e-05, 0.0, 0.0, 0.0, 1e-05)",-0.02392578125,0.16269531250000002,9.8095703125,"(0.01, 0.0, 0.0, 0.0, 0.01, 0.0, 0.0, 0.0, 0.01)"
2025/07/11/14:10:37.813750,206,1752243037,813430595,imu_link,0.003713403077638602,-0.008396504774936146,-0.9679213734054289,0.2510854919147976,"(0.001, 0.0, 0.0, 0.0, 0.001, 0.0, 0.0, 0.0, 0.001)",0.0,0.0,0.0,"(1e-05, 0.0, 0.0, 0.0, 1e-05, 0.0, 0.0, 0.0, 1e-05)",-0.028710937500000002,0.16269531250000002,9.8095703125,"(0.01, 0.0, 0.0, 0.0, 0.01, 0.0, 0.0, 0.0, 0.01)"
2025/07/11/14:10:37.864208,207,1752243037,863766861,imu_link,0.003713403077638602,-0.008396504774936146,-0.9679213734054289,0.2510854919147976,"(0.001, 0.0, 0.0, 0.0, 0.001, 0.0, 0.0, 0.0, 0.001)",0.0,0.0,0.0,"(1e-05, 0.0, 0.0, 0.0, 1e-05, 0.0, 0.0, 0.0, 1e-05)",-0.028710937500000002,0.16269531250000002,9.8095703125,"(0.01, 0.0, 0.0, 0.0, 0.01, 0.0, 0.0, 0.0, 0.01)"
2025/07/11/14:10:37.912984,208,1752243037,912471962,imu_link,0.003713403077638602,-0.008396504774936146,-0.9679213734054289,0.2510854919147976,"(0.001, 0.0, 0.0, 0.0, 0.001, 0.0, 0.0, 0.0, 0.001)",0.0,0.0,0.0,"(1e-05, 0.0, 0.0, 0.0, 1e-05, 0.0, 0.0, 0.0, 1e-05)",-0.028710937500000002,0.16269531250000002,9.8095703125,"(0.01, 0.0, 0.0, 0.0, 0.01, 0.0, 0.0, 0.0, 0.01)"
2025/07/11/14:10:37.914722,209,1752243037,914273987,imu_link,0.003713403077638602,-0.008396504774936146,-0.9679213734054289,0.2510854919147976,"(0.001, 0.0, 0.0, 0.0, 0.001, 0.0, 0.0, 0.0, 0.001)",0.0,0.0,0.0,"(1e-05, 0.0, 0.0, 0.0, 1e-05, 0.0, 0.0, 0.0, 1e-05)",-0.02392578125,0.16269531250000002,9.8095703125,"(0.01, 0.0, 0.0, 0.0, 0.01, 0.0, 0.0, 0.0, 0.01)"
2025/07/11/14:10:37.964609,210,1752243037,964203253,imu_link,0.003713403077638602,-0.008396504774936146,-0.9679213734054289,0.2510854919147976,"(0.001, 0.0, 0.0, 0.0, 0.001, 0.0, 0.0, 0.0, 0.001)",0.0,0.0,0.0,"(1e-05, 0.0, 0.0, 0.0, 1e-05, 0.0, 0.0, 0.0, 1e-05)",-0.028710937500000002,0.16269531250000002,9.8095703125,"(0.01, 0.0, 0.0, 0.0, 0.01, 0.0, 0.0, 0.0, 0.01)"
2025/07/11/14:10:38.013128,211,1752243038,12557897,imu_link,0.003713403077638602,-0.008396504774936146,-0.9679213734054289,0.2510854919147976,"(0.001, 0.0, 0.0, 0.0, 0.001, 0.0, 0.0, 0.0, 0.001)",0.0,0.0,0.0,"(1e-05, 0.0, 0.0, 0.0, 1e-05, 0.0, 0.0, 0.0, 1e-05)",-0.028710937500000002,0.16269531250000002,9.8095703125,"(0.01, 0.0, 0.0, 0.0, 0.01, 0.0, 0.0, 0.0, 0.01)"
2025/07/11/14:10:38.015022,212,1752243038,14662900,imu_link,0.003713403077638602,-0.008396504774936146,-0.9679213734054289,0.2510854919147976,"(0.001, 0.0, 0.0, 0.0, 0.001, 0.0, 0.0, 0.0, 0.001)",0.0,0.0,0.0,"(1e-05, 0.0, 0.0, 0.0, 1e-05, 0.0, 0.0, 0.0, 1e-05)",-0.02392578125,0.16269531250000002,9.8095703125,"(0.01, 0.0, 0.0, 0.0, 0.01, 0.0, 0.0, 0.0, 0.01)"
2025/07/11/14:10:38.065048,213,1752243038,64718857,imu_link,0.003713403077638602,-0.008396504774936146,-0.9679213734054289,0.2510854919147976,"(0.001, 0.0, 0.0, 0.0, 0.001, 0.0, 0.0, 0.0, 0.001)",0.0,0.0,0.0,"(1e-05, 0.0, 0.0, 0.0, 1e-05, 0.0, 0.0, 0.0, 1e-05)",-0.033496093750000004,0.16269531250000002,9.8095703125,"(0.01, 0.0, 0.0, 0.0, 0.01, 0.0, 0.0, 0.0, 0.01)"
2025/07/11/14:10:38.112631,214,1752243038,112340636,imu_link,0.003713403077638602,-0.008396504774936146,-0.9679213734054289,0.2510854919147976,"(0.001, 0.0, 0.0, 0.0, 0.001, 0.0, 0.0, 0.0, 0.001)",0.0,0.0,0.0,"(1e-05, 0.0, 0.0, 0.0, 1e-05, 0.0, 0.0, 0.0, 1e-05)",-0.033496093750000004,0.16269531250000002,9.8095703125,"(0.01, 0.0, 0.0, 0.0, 0.01, 0.0, 0.0, 0.0, 0.01)"
2025/07/11/14:10:38.115221,215,1752243038,114869483,imu_link,0.003713403077638602,-0.008396504774936146,-0.9679213734054289,0.2510854919147976,"(0.001, 0.0, 0.0, 0.0, 0.001, 0.0, 0.0, 0.0, 0.001)",0.0,0.0,0.0,"(1e-05, 0.0, 0.0, 0.0, 1e-05, 0.0, 0.0, 0.0, 1e-05)",-0.028710937500000002,0.16269531250000002,9.8095703125,"(0.01, 0.0, 0.0, 0.0, 0.01, 0.0, 0.0, 0.0, 0.01)"
2025/07/11/14:10:38.165483,216,1752243038,165230524,imu_link,0.003713403077638602,-0.008396504774936146,-0.9679213734054289,0.2510854919147976,"(0.001, 0.0, 0.0, 0.0, 0.001, 0.0, 0.0, 0.0, 0.001)",0.0,0.0,0.0,"(1e-05, 0.0, 0.0, 0.0, 1e-05, 0.0, 0.0, 0.0, 1e-05)",-0.028710937500000002,0.16269531250000002,9.8095703125,"(0.01, 0.0, 0.0, 0.0, 0.01, 0.0, 0.0, 0.0, 0.01)"
2025/07/11/14:10:38.212683,217,1752243038,212341475,imu_link,0.003713403077638602,-0.008396504774936146,-0.9679213734054289,0.2510854919147976,"(0.001, 0.0, 0.0, 0.0, 0.001, 0.0, 0.0, 0.0, 0.001)",0.0,0.0,0.0,"(1e-05, 0.0, 0.0, 0.0, 1e-05, 0.0, 0.0, 0.0, 1e-05)",-0.028710937500000002,0.16269531250000002,9.8095703125,"(0.01, 0.0, 0.0, 0.0, 0.01, 0.0, 0.0, 0.0, 0.01)"
2025/07/11/14:10:38.215872,218,1752243038,215543964,imu_link,0.003713403077638602,-0.008396504774936146,-0.9679213734054289,0.2510854919147976,"(0.001, 0.0, 0.0, 0.0, 0.001, 0.0, 0.0, 0.0, 0.001)",0.0,0.0,0.0,"(1e-05, 0.0, 0.0, 0.0, 1e-05, 0.0, 0.0, 0.0, 1e-05)",-0.02392578125,0.16269531250000002,9.8095703125,"(0.01, 0.0, 0.0, 0.0, 0.01, 0.0, 0.0, 0.0, 0.01)"
2025/07/11/14:10:38.265858,219,1752243038,265585400,imu_link,0.003713403077638602,-0.008396504774936146,-0.9679213734054289,0.2510854919147976,"(0.001, 0.0, 0.0, 0.0, 0.001, 0.0, 0.0, 0.0, 0.001)",0.0,0.0,0.0,"(1e-05, 0.0, 0.0, 0.0, 1e-05, 0.0, 0.0, 0.0, 1e-05)",-0.028710937500000002,0.16269531250000002,9.8095703125,"(0.01, 0.0, 0.0, 0.0, 0.01, 0.0, 0.0, 0.0, 0.01)"
2025/07/11/14:10:38.312526,220,1752243038,312289753,imu_link,0.003713403077638602,-0.008396504774936146,-0.9679213734054289,0.2510854919147976,"(0.001, 0.0, 0.0, 0.0, 0.001, 0.0, 0.0, 0.0, 0.001)",0.0,0.0,0.0,"(1e-05, 0.0, 0.0, 0.0, 1e-05, 0.0, 0.0, 0.0, 1e-05)",-0.028710937500000002,0.16269531250000002,9.8095703125,"(0.01, 0.0, 0.0, 0.0, 0.01, 0.0, 0.0, 0.0, 0.01)"
2025/07/11/14:10:38.315866,221,1752243038,315766421,imu_link,0.003713403077638602,-0.008396504774936146,-0.9679213734054289,0.2510854919147976,"(0.001, 0.0, 0.0, 0.0, 0.001, 0.0, 0.0, 0.0, 0.001)",0.0,0.0,0.0,"(1e-05, 0.0, 0.0, 0.0, 1e-05, 0.0, 0.0, 0.0, 1e-05)",-0.02392578125,0.16269531250000002,9.8095703125,"(0.01, 0.0, 0.0, 0.0, 0.01, 0.0, 0.0, 0.0, 0.01)"
2025/07/11/14:10:38.366301,222,1752243038,366084320,imu_link,0.003713403077638602,-0.008396504774936146,-0.9679213734054289,0.2510854919147976,"(0.001, 0.0, 0.0, 0.0, 0.001, 0.0, 0.0, 0.0, 0.001)",0.0,0.0,0.0,"(1e-05, 0.0, 0.0, 0.0, 1e-05, 0.0, 0.0, 0.0, 1e-05)",-0.028710937500000002,0.16269531250000002,9.8095703125,"(0.01, 0.0, 0.0, 0.0, 0.01, 0.0, 0.0, 0.0, 0.01)"
2025/07/11/14:10:38.412785,223,1752243038,412352002,imu_link,0.003713403077638602,-0.008396504774936146,-0.9679213734054289,0.2510854919147976,"(0.001, 0.0, 0.0, 0.0, 0.001, 0.0, 0.0, 0.0, 0.001)",0.0,0.0,0.0,"(1e-05, 0.0, 0.0, 0.0, 1e-05, 0.0, 0.0, 0.0, 1e-05)",-0.028710937500000002,0.16269531250000002,9.8095703125,"(0.01, 0.0, 0.0, 0.0, 0.01, 0.0, 0.0, 0.0, 0.01)"
2025/07/11/14:10:38.416747,224,1752243038,416389433,imu_link,0.003713403077638602,-0.008396504774936146,-0.9679213734054289,0.2510854919147976,"(0.001, 0.0, 0.0, 0.0, 0.001, 0.0, 0.0, 0.0, 0.001)",0.0,0.0,0.0,"(1e-05, 0.0, 0.0, 0.0, 1e-05, 0.0, 0.0, 0.0, 1e-05)",-0.028710937500000002,0.16269531250000002,9.8095703125,"(0.01, 0.0, 0.0, 0.0, 0.01, 0.0, 0.0, 0.0, 0.01)"
2025/07/11/14:10:38.467087,225,1752243038,466691730,imu_link,0.003713403077638602,-0.008396504774936146,-0.9679213734054289,0.2510854919147976,"(0.001, 0.0, 0.0, 0.0, 0.001, 0.0, 0.0, 0.0, 0.001)",0.0,0.0,0.0,"(1e-05, 0.0, 0.0, 0.0, 1e-05, 0.0, 0.0, 0.0, 1e-05)",-0.02392578125,0.16269531250000002,9.8095703125,"(0.01, 0.0, 0.0, 0.0, 0.01, 0.0, 0.0, 0.0, 0.01)"
2025/07/11/14:10:38.512779,226,1752243038,512327928,imu_link,0.003713403077638602,-0.008396504774936146,-0.9679213734054289,0.2510854919147976,"(0.001, 0.0, 0.0, 0.0, 0.001, 0.0, 0.0, 0.0, 0.001)",0.0,0.0,0.0,"(1e-05, 0.0, 0.0, 0.0, 1e-05, 0.0, 0.0, 0.0, 1e-05)",-0.02392578125,0.16269531250000002,9.8095703125,"(0.01, 0.0, 0.0, 0.0, 0.01, 0.0, 0.0, 0.0, 0.01)"
2025/07/11/14:10:38.517144,227,1752243038,516894055,imu_link,0.003713403077638602,-0.008396504774936146,-0.9679213734054289,0.2510854919147976,"(0.001, 0.0, 0.0, 0.0, 0.001, 0.0, 0.0, 0.0, 0.001)",0.0,0.0,0.0,"(1e-05, 0.0, 0.0, 0.0, 1e-05, 0.0, 0.0, 0.0, 1e-05)",-0.028710937500000002,0.16269531250000002,9.8095703125,"(0.01, 0.0, 0.0, 0.0, 0.01, 0.0, 0.0, 0.0, 0.01)"
2025/07/11/14:10:38.567508,228,1752243038,567179707,imu_link,0.003713403077638602,-0.008396504774936146,-0.9679213734054289,0.2510854919147976,"(0.001, 0.0, 0.0, 0.0, 0.001, 0.0, 0.0, 0.0, 0.001)",0.0,0.0,0.0,"(1e-05, 0.0, 0.0, 0.0, 1e-05, 0.0, 0.0, 0.0, 1e-05)",-0.028710937500000002,0.16269531250000002,9.8095703125,"(0.01, 0.0, 0.0, 0.0, 0.01, 0.0, 0.0, 0.0, 0.01)"
2025/07/11/14:10:38.612774,229,1752243038,612339219,imu_link,0.003713403077638602,-0.008396504774936146,-0.9679213734054289,0.2510854919147976,"(0.001, 0.0, 0.0, 0.0, 0.001, 0.0, 0.0, 0.0, 0.001)",0.0,0.0,0.0,"(1e-05, 0.0, 0.0, 0.0, 1e-05, 0.0, 0.0, 0.0, 1e-05)",-0.028710937500000002,0.16269531250000002,9.8095703125,"(0.01, 0.0, 0.0, 0.0, 0.01, 0.0, 0.0, 0.0, 0.01)"
2025/07/11/14:10:38.617756,230,1752243038,617458434,imu_link,0.003713403077638602,-0.008396504774936146,-0.9679213734054289,0.2510854919147976,"(0.001, 0.0, 0.0, 0.0, 0.001, 0.0, 0.0, 0.0, 0.001)",0.0,0.0,0.0,"(1e-05, 0.0, 0.0, 0.0, 1e-05, 0.0, 0.0, 0.0, 1e-05)",-0.028710937500000002,0.16269531250000002,9.8095703125,"(0.01, 0.0, 0.0, 0.0, 0.01, 0.0, 0.0, 0.0, 0.01)"
2025/07/11/14:10:38.668048,231,1752243038,667670179,imu_link,0.003713403077638602,-0.008396504774936146,-0.9679213734054289,0.2510854919147976,"(0.001, 0.0, 0.0, 0.0, 0.001, 0.0, 0.0, 0.0, 0.001)",0.0,0.0,0.0,"(1e-05, 0.0, 0.0, 0.0, 1e-05, 0.0, 0.0, 0.0, 1e-05)",-0.028710937500000002,0.16269531250000002,9.8095703125,"(0.01, 0.0, 0.0, 0.0, 0.01, 0.0, 0.0, 0.0, 0.01)"
2025/07/11/14:10:38.712963,232,1752243038,712564612,imu_link,0.003713403077638602,-0.008396504774936146,-0.9679213734054289,0.2510854919147976,"(0.001, 0.0, 0.0, 0.0, 0.001, 0.0, 0.0, 0.0, 0.001)",0.0,0.0,0.0,"(1e-05, 0.0, 0.0, 0.0, 1e-05, 0.0, 0.0, 0.0, 1e-05)",-0.028710937500000002,0.16269531250000002,9.8095703125,"(0.01, 0.0, 0.0, 0.0, 0.01, 0.0, 0.0, 0.0, 0.01)"
2025/07/11/14:10:38.718340,233,1752243038,717963667,imu_link,0.003713403077638602,-0.008396504774936146,-0.9679213734054289,0.2510854919147976,"(0.001, 0.0, 0.0, 0.0, 0.001, 0.0, 0.0, 0.0, 0.001)",0.0,0.0,0.0,"(1e-05, 0.0, 0.0, 0.0, 1e-05, 0.0, 0.0, 0.0, 1e-05)",-0.028710937500000002,0.16269531250000002,9.8095703125,"(0.01, 0.0, 0.0, 0.0, 0.01, 0.0, 0.0, 0.0, 0.01)"
2025/07/11/14:10:38.768523,234,1752243038,768148636,imu_link,0.003713403077638602,-0.008396504774936146,-0.9679213734054289,0.2510854919147976,"(0.001, 0.0, 0.0, 0.0, 0.001, 0.0, 0.0, 0.0, 0.001)",0.0,0.0,0.0,"(1e-05, 0.0, 0.0, 0.0, 1e-05, 0.0, 0.0, 0.0, 1e-05)",-0.028710937500000002,0.16269531250000002,9.8095703125,"(0.01, 0.0, 0.0, 0.0, 0.01, 0.0, 0.0, 0.0, 0.01)"
2025/07/11/14:10:38.812832,235,1752243038,812339614,imu_link,0.003713403077638602,-0.008396504774936146,-0.9679213734054289,0.2510854919147976,"(0.001, 0.0, 0.0, 0.0, 0.001, 0.0, 0.0, 0.0, 0.001)",0.0,0.0,0.0,"(1e-05, 0.0, 0.0, 0.0, 1e-05, 0.0, 0.0, 0.0, 1e-05)",-0.028710937500000002,0.16269531250000002,9.8095703125,"(0.01, 0.0, 0.0, 0.0, 0.01, 0.0, 0.0, 0.0, 0.01)"
2025/07/11/14:10:38.818830,236,1752243038,818384994,imu_link,0.003713403077638602,-0.008396504774936146,-0.9679213734054289,0.2510854919147976,"(0.001, 0.0, 0.0, 0.0, 0.001, 0.0, 0.0, 0.0, 0.001)",0.0,0.0,0.0,"(1e-05, 0.0, 0.0, 0.0, 1e-05, 0.0, 0.0, 0.0, 1e-05)",-0.028710937500000002,0.16269531250000002,9.8095703125,"(0.01, 0.0, 0.0, 0.0, 0.01, 0.0, 0.0, 0.0, 0.01)"
2025/07/11/14:10:38.868684,237,1752243038,868495746,imu_link,0.003713403077638602,-0.008396504774936146,-0.9679213734054289,0.2510854919147976,"(0.001, 0.0, 0.0, 0.0, 0.001, 0.0, 0.0, 0.0, 0.001)",0.0,0.0,0.0,"(1e-05, 0.0, 0.0, 0.0, 1e-05, 0.0, 0.0, 0.0, 1e-05)",-0.028710937500000002,0.16269531250000002,9.8095703125,"(0.01, 0.0, 0.0, 0.0, 0.01, 0.0, 0.0, 0.0, 0.01)"
2025/07/11/14:10:38.912727,238,1752243038,912322475,imu_link,0.003713403077638602,-0.008396504774936146,-0.9679213734054289,0.2510854919147976,"(0.001, 0.0, 0.0, 0.0, 0.001, 0.0, 0.0, 0.0, 0.001)",0.0,0.0,0.0,"(1e-05, 0.0, 0.0, 0.0, 1e-05, 0.0, 0.0, 0.0, 1e-05)",-0.028710937500000002,0.16269531250000002,9.8095703125,"(0.01, 0.0, 0.0, 0.0, 0.01, 0.0, 0.0, 0.0, 0.01)"
2025/07/11/14:10:38.919137,239,1752243038,918820510,imu_link,0.003713403077638602,-0.008396504774936146,-0.9679213734054289,0.2510854919147976,"(0.001, 0.0, 0.0, 0.0, 0.001, 0.0, 0.0, 0.0, 0.001)",0.0,0.0,0.0,"(1e-05, 0.0, 0.0, 0.0, 1e-05, 0.0, 0.0, 0.0, 1e-05)",-0.028710937500000002,0.16269531250000002,9.8095703125,"(0.01, 0.0, 0.0, 0.0, 0.01, 0.0, 0.0, 0.0, 0.01)"
2025/07/11/14:10:38.969559,240,1752243038,969210873,imu_link,0.003713403077638602,-0.008396504774936146,-0.9679213734054289,0.2510854919147976,"(0.001, 0.0, 0.0, 0.0, 0.001, 0.0, 0.0, 0.0, 0.001)",0.0,0.0,0.0,"(1e-05, 0.0, 0.0, 0.0, 1e-05, 0.0, 0.0, 0.0, 1e-05)",-0.02392578125,0.16269531250000002,9.8095703125,"(0.01, 0.0, 0.0, 0.0, 0.01, 0.0, 0.0, 0.0, 0.01)"
2025/07/11/14:10:39.012487,241,1752243039,12295719,imu_link,0.003713403077638602,-0.008396504774936146,-0.9679213734054289,0.2510854919147976,"(0.001, 0.0, 0.0, 0.0, 0.001, 0.0, 0.0, 0.0, 0.001)",0.0,0.0,0.0,"(1e-05, 0.0, 0.0, 0.0, 1e-05, 0.0, 0.0, 0.0, 1e-05)",-0.02392578125,0.16269531250000002,9.8095703125,"(0.01, 0.0, 0.0, 0.0, 0.01, 0.0, 0.0, 0.0, 0.01)"
2025/07/11/14:10:39.019393,242,1752243039,19287390,imu_link,0.003713403077638602,-0.008396504774936146,-0.9679213734054289,0.2510854919147976,"(0.001, 0.0, 0.0, 0.0, 0.001, 0.0, 0.0, 0.0, 0.001)",0.0,0.0,0.0,"(1e-05, 0.0, 0.0, 0.0, 1e-05, 0.0, 0.0, 0.0, 1e-05)",-0.028710937500000002,0.16269531250000002,9.8095703125,"(0.01, 0.0, 0.0, 0.0, 0.01, 0.0, 0.0, 0.0, 0.01)"
2025/07/11/14:10:39.069755,243,1752243039,69513208,imu_link,0.003713403077638602,-0.008396504774936146,-0.9679213734054289,0.2510854919147976,"(0.001, 0.0, 0.0, 0.0, 0.001, 0.0, 0.0, 0.0, 0.001)",0.0,0.0,0.0,"(1e-05, 0.0, 0.0, 0.0, 1e-05, 0.0, 0.0, 0.0, 1e-05)",-0.033496093750000004,0.16269531250000002,9.8095703125,"(0.01, 0.0, 0.0, 0.0, 0.01, 0.0, 0.0, 0.0, 0.01)"
2025/07/11/14:10:39.113098,244,1752243039,112586145,imu_link,0.003713403077638602,-0.008396504774936146,-0.9679213734054289,0.2510854919147976,"(0.001, 0.0, 0.0, 0.0, 0.001, 0.0, 0.0, 0.0, 0.001)",0.0,0.0,0.0,"(1e-05, 0.0, 0.0, 0.0, 1e-05, 0.0, 0.0, 0.0, 1e-05)",-0.033496093750000004,0.16269531250000002,9.8095703125,"(0.01, 0.0, 0.0, 0.0, 0.01, 0.0, 0.0, 0.0, 0.01)"
2025/07/11/14:10:39.120731,245,1752243039,120282393,imu_link,0.003713403077638602,-0.008396504774936146,-0.9679213734054289,0.2510854919147976,"(0.001, 0.0, 0.0, 0.0, 0.001, 0.0, 0.0, 0.0, 0.001)",0.0,0.0,0.0,"(1e-05, 0.0, 0.0, 0.0, 1e-05, 0.0, 0.0, 0.0, 1e-05)",-0.028710937500000002,0.16269531250000002,9.8095703125,"(0.01, 0.0, 0.0, 0.0, 0.01, 0.0, 0.0, 0.0, 0.01)"
2025/07/11/14:10:39.170588,246,1752243039,170224703,imu_link,0.003713403077638602,-0.008396504774936146,-0.9679213734054289,0.2510854919147976,"(0.001, 0.0, 0.0, 0.0, 0.001, 0.0, 0.0, 0.0, 0.001)",0.0,0.0,0.0,"(1e-05, 0.0, 0.0, 0.0, 1e-05, 0.0, 0.0, 0.0, 1e-05)",-0.028710937500000002,0.16269531250000002,9.8095703125,"(0.01, 0.0, 0.0, 0.0, 0.01, 0.0, 0.0, 0.0, 0.01)"
2025/07/11/14:10:39.212658,247,1752243039,212320308,imu_link,0.0037013668135596114,-0.008350105616379671,-0.9679217747957127,0.2510856696353346,"(0.001, 0.0, 0.0, 0.0, 0.001, 0.0, 0.0, 0.0, 0.001)",0.0,0.0,0.0,"(1e-05, 0.0, 0.0, 0.0, 1e-05, 0.0, 0.0, 0.0, 1e-05)",-0.028710937500000002,0.16269531250000002,9.8095703125,"(0.01, 0.0, 0.0, 0.0, 0.01, 0.0, 0.0, 0.0, 0.01)"
2025/07/11/14:10:39.220875,248,1752243039,220450391,imu_link,0.0037013668135596114,-0.008350105616379671,-0.9679217747957127,0.2510856696353346,"(0.001, 0.0, 0.0, 0.0, 0.001, 0.0, 0.0, 0.0, 0.001)",0.0,0.0,0.0,"(1e-05, 0.0, 0.0, 0.0, 1e-05, 0.0, 0.0, 0.0, 1e-05)",-0.028710937500000002,0.16269531250000002,9.8095703125,"(0.01, 0.0, 0.0, 0.0, 0.01, 0.0, 0.0, 0.0, 0.01)"
2025/07/11/14:10:39.270968,249,1752243039,270631886,imu_link,0.0037013668135596114,-0.008350105616379671,-0.9679217747957127,0.2510856696353346,"(0.001, 0.0, 0.0, 0.0, 0.001, 0.0, 0.0, 0.0, 0.001)",0.0,0.0,0.0,"(1e-05, 0.0, 0.0, 0.0, 1e-05, 0.0, 0.0, 0.0, 1e-05)",-0.02392578125,0.16269531250000002,9.8095703125,"(0.01, 0.0, 0.0, 0.0, 0.01, 0.0, 0.0, 0.0, 0.01)"
2025/07/11/14:10:39.312833,250,1752243039,312329120,imu_link,0.0037013668135596114,-0.008350105616379671,-0.9679217747957127,0.2510856696353346,"(0.001, 0.0, 0.0, 0.0, 0.001, 0.0, 0.0, 0.0, 0.001)",0.0,0.0,0.0,"(1e-05, 0.0, 0.0, 0.0, 1e-05, 0.0, 0.0, 0.0, 1e-05)",-0.02392578125,0.16269531250000002,9.8095703125,"(0.01, 0.0, 0.0, 0.0, 0.01, 0.0, 0.0, 0.0, 0.01)"
2025/07/11/14:10:39.321362,251,1752243039,320929576,imu_link,0.0037013668135596114,-0.008350105616379671,-0.9679217747957127,0.2510856696353346,"(0.001, 0.0, 0.0, 0.0, 0.001, 0.0, 0.0, 0.0, 0.001)",0.0,0.0,0.0,"(1e-05, 0.0, 0.0, 0.0, 1e-05, 0.0, 0.0, 0.0, 1e-05)",-0.033496093750000004,0.15791015625000002,9.8095703125,"(0.01, 0.0, 0.0, 0.0, 0.01, 0.0, 0.0, 0.0, 0.01)"
2025/07/11/14:10:39.371568,252,1752243039,371131063,imu_link,0.0037013668135596114,-0.008350105616379671,-0.9679217747957127,0.2510856696353346,"(0.001, 0.0, 0.0, 0.0, 0.001, 0.0, 0.0, 0.0, 0.001)",0.0,0.0,0.0,"(1e-05, 0.0, 0.0, 0.0, 1e-05, 0.0, 0.0, 0.0, 1e-05)",-0.028710937500000002,0.16269531250000002,9.8095703125,"(0.01, 0.0, 0.0, 0.0, 0.01, 0.0, 0.0, 0.0, 0.01)"
2025/07/11/14:10:39.412918,253,1752243039,412412550,imu_link,0.0037013668135596114,-0.008350105616379671,-0.9679217747957127,0.2510856696353346,"(0.001, 0.0, 0.0, 0.0, 0.001, 0.0, 0.0, 0.0, 0.001)",0.0,0.0,0.0,"(1e-05, 0.0, 0.0, 0.0, 1e-05, 0.0, 0.0, 0.0, 1e-05)",-0.028710937500000002,0.16269531250000002,9.8095703125,"(0.01, 0.0, 0.0, 0.0, 0.01, 0.0, 0.0, 0.0, 0.01)"
2025/07/11/14:10:39.421873,254,1752243039,421491024,imu_link,0.0037013668135596114,-0.008350105616379671,-0.9679217747957127,0.2510856696353346,"(0.001, 0.0, 0.0, 0.0, 0.001, 0.0, 0.0, 0.0, 0.001)",0.0,0.0,0.0,"(1e-05, 0.0, 0.0, 0.0, 1e-05, 0.0, 0.0, 0.0, 1e-05)",-0.028710937500000002,0.16269531250000002,9.8095703125,"(0.01, 0.0, 0.0, 0.0, 0.01, 0.0, 0.0, 0.0, 0.01)"
2025/07/11/14:10:39.471993,255,1752243039,471659091,imu_link,0.0037013668135596114,-0.008350105616379671,-0.9679217747957127,0.2510856696353346,"(0.001, 0.0, 0.0, 0.0, 0.001, 0.0, 0.0, 0.0, 0.001)",0.0,0.0,0.0,"(1e-05, 0.0, 0.0, 0.0, 1e-05, 0.0, 0.0, 0.0, 1e-05)",-0.028710937500000002,0.16269531250000002,9.8095703125,"(0.01, 0.0, 0.0, 0.0, 0.01, 0.0, 0.0, 0.0, 0.01)"
2025/07/11/14:10:39.512842,256,1752243039,512330671,imu_link,0.0037013668135596114,-0.008350105616379671,-0.9679217747957127,0.2510856696353346,"(0.001, 0.0, 0.0, 0.0, 0.001, 0.0, 0.0, 0.0, 0.001)",0.0,0.0,0.0,"(1e-05, 0.0, 0.0, 0.0, 1e-05, 0.0, 0.0, 0.0, 1e-05)",-0.028710937500000002,0.16269531250000002,9.8095703125,"(0.01, 0.0, 0.0, 0.0, 0.01, 0.0, 0.0, 0.0, 0.01)"
2025/07/11/14:10:39.522181,257,1752243039,521866570,imu_link,0.0037013668135596114,-0.008350105616379671,-0.9679217747957127,0.2510856696353346,"(0.001, 0.0, 0.0, 0.0, 0.001, 0.0, 0.0, 0.0, 0.001)",0.0,0.0,0.0,"(1e-05, 0.0, 0.0, 0.0, 1e-05, 0.0, 0.0, 0.0, 1e-05)",-0.028710937500000002,0.16269531250000002,9.8095703125,"(0.01, 0.0, 0.0, 0.0, 0.01, 0.0, 0.0, 0.0, 0.01)"
2025/07/11/14:10:39.572399,258,1752243039,572131912,imu_link,0.0037013668135596114,-0.008350105616379671,-0.9679217747957127,0.2510856696353346,"(0.001, 0.0, 0.0, 0.0, 0.001, 0.0, 0.0, 0.0, 0.001)",0.0,0.0,0.0,"(1e-05, 0.0, 0.0, 0.0, 1e-05, 0.0, 0.0, 0.0, 1e-05)",-0.02392578125,0.15791015625000002,9.8095703125,"(0.01, 0.0, 0.0, 0.0, 0.01, 0.0, 0.0, 0.0, 0.01)"
2025/07/11/14:10:39.613058,259,1752243039,612539285,imu_link,0.0037013668135596114,-0.008350105616379671,-0.9679217747957127,0.2510856696353346,"(0.001, 0.0, 0.0, 0.0, 0.001, 0.0, 0.0, 0.0, 0.001)",0.0,0.0,0.0,"(1e-05, 0.0, 0.0, 0.0, 1e-05, 0.0, 0.0, 0.0, 1e-05)",-0.02392578125,0.15791015625000002,9.8095703125,"(0.01, 0.0, 0.0, 0.0, 0.01, 0.0, 0.0, 0.0, 0.01)"
2025/07/11/14:10:39.622707,260,1752243039,622420753,imu_link,0.0037013668135596114,-0.008350105616379671,-0.9679217747957127,0.2510856696353346,"(0.001, 0.0, 0.0, 0.0, 0.001, 0.0, 0.0, 0.0, 0.001)",0.0,0.0,0.0,"(1e-05, 0.0, 0.0, 0.0, 1e-05, 0.0, 0.0, 0.0, 1e-05)",-0.028710937500000002,0.15791015625000002,9.8,"(0.01, 0.0, 0.0, 0.0, 0.01, 0.0, 0.0, 0.0, 0.01)"
2025/07/11/14:10:39.672938,261,1752243039,672679391,imu_link,0.0037013668135596114,-0.008350105616379671,-0.9679217747957127,0.2510856696353346,"(0.001, 0.0, 0.0, 0.0, 0.001, 0.0, 0.0, 0.0, 0.001)",0.0,0.0,0.0,"(1e-05, 0.0, 0.0, 0.0, 1e-05, 0.0, 0.0, 0.0, 1e-05)",-0.028710937500000002,0.153125,9.814355468750001,"(0.01, 0.0, 0.0, 0.0, 0.01, 0.0, 0.0, 0.0, 0.01)"
2025/07/11/14:10:39.713018,262,1752243039,712512722,imu_link,0.0037013668135596114,-0.008350105616379671,-0.9679217747957127,0.2510856696353346,"(0.001, 0.0, 0.0, 0.0, 0.001, 0.0, 0.0, 0.0, 0.001)",0.0,0.0,0.0,"(1e-05, 0.0, 0.0, 0.0, 1e-05, 0.0, 0.0, 0.0, 1e-05)",-0.028710937500000002,0.153125,9.814355468750001,"(0.01, 0.0, 0.0, 0.0, 0.01, 0.0, 0.0, 0.0, 0.01)"
2025/07/11/14:10:39.723195,263,1752243039,722905800,imu_link,0.0037013668135596114,-0.008350105616379671,-0.9679217747957127,0.2510856696353346,"(0.001, 0.0, 0.0, 0.0, 0.001, 0.0, 0.0, 0.0, 0.001)",0.0,0.0,0.0,"(1e-05, 0.0, 0.0, 0.0, 1e-05, 0.0, 0.0, 0.0, 1e-05)",-0.033496093750000004,0.15791015625000002,9.80478515625,"(0.01, 0.0, 0.0, 0.0, 0.01, 0.0, 0.0, 0.0, 0.01)"
2025/07/11/14:10:39.773791,264,1752243039,773382458,imu_link,0.0037013668135596114,-0.008350105616379671,-0.9679217747957127,0.2510856696353346,"(0.001, 0.0, 0.0, 0.0, 0.001, 0.0, 0.0, 0.0, 0.001)",0.0,0.0,0.0,"(1e-05, 0.0, 0.0, 0.0, 1e-05, 0.0, 0.0, 0.0, 1e-05)",-0.02392578125,0.15791015625000002,9.819140625000001,"(0.01, 0.0, 0.0, 0.0, 0.01, 0.0, 0.0, 0.0, 0.01)"
2025/07/11/14:10:39.813124,265,1752243039,812605732,imu_link,0.0037013668135596114,-0.008350105616379671,-0.9679217747957127,0.2510856696353346,"(0.001, 0.0, 0.0, 0.0, 0.001, 0.0, 0.0, 0.0, 0.001)",0.0,0.0,0.0,"(1e-05, 0.0, 0.0, 0.0, 1e-05, 0.0, 0.0, 0.0, 1e-05)",-0.02392578125,0.15791015625000002,9.819140625000001,"(0.01, 0.0, 0.0, 0.0, 0.01, 0.0, 0.0, 0.0, 0.01)"
2025/07/11/14:10:39.824360,266,1752243039,823870649,imu_link,0.0037013668135596114,-0.008350105616379671,-0.9679217747957127,0.2510856696353346,"(0.001, 0.0, 0.0, 0.0, 0.001, 0.0, 0.0, 0.0, 0.001)",0.0,0.0,0.0,"(1e-05, 0.0, 0.0, 0.0, 1e-05, 0.0, 0.0, 0.0, 1e-05)",-0.37324218750000004,0.03828125,9.551171875000001,"(0.01, 0.0, 0.0, 0.0, 0.01, 0.0, 0.0, 0.0, 0.01)"
2025/07/11/14:10:39.874103,267,1752243039,873755058,imu_link,0.00368972859067123,-0.00830352957402964,-0.9679101365728244,0.25113224567768466,"(0.001, 0.0, 0.0, 0.0, 0.001, 0.0, 0.0, 0.0, 0.001)",-0.018109495103624133,0.0,0.014913701850043402,"(1e-05, 0.0, 0.0, 0.0, 1e-05, 0.0, 0.0, 0.0, 1e-05)",0.3828125,-0.9187500000000001,9.83349609375,"(0.01, 0.0, 0.0, 0.0, 0.01, 0.0, 0.0, 0.0, 0.01)"
2025/07/11/14:10:39.913125,268,1752243039,912546501,imu_link,0.004045257134972316,-0.0071697293851670455,-0.9677373395885192,0.25182667142578524,"(0.001, 0.0, 0.0, 0.0, 0.001, 0.0, 0.0, 0.0, 0.001)",-0.058589542982313364,0.051132692057291665,-0.09800432644314236,"(1e-05, 0.0, 0.0, 0.0, 1e-05, 0.0, 0.0, 0.0, 1e-05)",0.3828125,-0.9187500000000001,9.83349609375,"(0.01, 0.0, 0.0, 0.0, 0.01, 0.0, 0.0, 0.0, 0.01)"
2025/07/11/14:10:39.924334,269,1752243039,924040311,imu_link,0.004045257134972316,-0.0071697293851670455,-0.9677373395885192,0.25182667142578524,"(0.001, 0.0, 0.0, 0.0, 0.001, 0.0, 0.0, 0.0, 0.001)",-0.058589542982313364,0.051132692057291665,-0.09800432644314236,"(1e-05, 0.0, 0.0, 0.0, 1e-05, 0.0, 0.0, 0.0, 1e-05)",0.21533203125000003,-0.5311523437500001,9.68515625,"(0.01, 0.0, 0.0, 0.0, 0.01, 0.0, 0.0, 0.0, 0.01)"
2025/07/11/14:10:39.974615,270,1752243039,974321927,imu_link,0.003806279165755621,-0.006492707297207016,-0.9681873936386236,0.2501130300286534,"(0.001, 0.0, 0.0, 0.0, 0.001, 0.0, 0.0, 0.0, 0.001)",0.019174759521484376,0.0,-0.06604639390733508,"(1e-05, 0.0, 0.0, 0.0, 1e-05, 0.0, 0.0, 0.0, 1e-05)",-0.04306640625,-0.7369140625,9.46982421875,"(0.01, 0.0, 0.0, 0.0, 0.01, 0.0, 0.0, 0.0, 0.01)"
2025/07/11/14:10:40.013108,271,1752243040,12513748,imu_link,0.004177763014290039,-0.005315201824651518,-0.9688729762206765,0.24746606004672222,"(0.001, 0.0, 0.0, 0.0, 0.001, 0.0, 0.0, 0.0, 0.001)",-0.029827403700086803,0.04048004787868924,-0.15020228291829427,"(1e-05, 0.0, 0.0, 0.0, 1e-05, 0.0, 0.0, 0.0, 1e-05)",-0.04306640625,-0.7369140625,9.46982421875,"(0.01, 0.0, 0.0, 0.0, 0.01, 0.0, 0.0, 0.0, 0.01)"
2025/07/11/14:10:40.024858,272,1752243040,24508466,imu_link,0.004177763014290039,-0.005315201824651518,-0.9688729762206765,0.24746606004672222,"(0.001, 0.0, 0.0, 0.0, 0.001, 0.0, 0.0, 0.0, 0.001)",-0.029827403700086803,0.04048004787868924,-0.15020228291829427,"(1e-05, 0.0, 0.0, 0.0, 1e-05, 0.0, 0.0, 0.0, 1e-05)",-0.09091796875000001,-0.9905273437500001,10.0966796875,"(0.01, 0.0, 0.0, 0.0, 0.01, 0.0, 0.0, 0.0, 0.01)"
2025/07/11/14:10:40.075029,273,1752243040,74730440,imu_link,0.0042457190121255,-0.0035318435977470444,-0.9699850348849958,0.24310189643444785,"(0.001, 0.0, 0.0, 0.0, 0.001, 0.0, 0.0, 0.0, 0.001)",-0.018109495103624133,0.01065264417860243,-0.19707391730414497,"(1e-05, 0.0, 0.0, 0.0, 1e-05, 0.0, 0.0, 0.0, 1e-05)",0.0,-0.9474609375,10.1349609375,"(0.01, 0.0, 0.0, 0.0, 0.01, 0.0, 0.0, 0.0, 0.01)"
2025/07/11/14:10:40.113098,274,1752243040,112528450,imu_link,0.004160739779808477,-0.00248684077600908,-0.9714042930934152,0.23738197746906095,"(0.001, 0.0, 0.0, 0.0, 0.001, 0.0, 0.0, 0.0, 0.001)",0.03621899020724827,0.001065264417860243,-0.2545981958685981,"(1e-05, 0.0, 0.0, 0.0, 1e-05, 0.0, 0.0, 0.0, 1e-05)",0.0,-0.9474609375,10.1349609375,"(0.01, 0.0, 0.0, 0.0, 0.01, 0.0, 0.0, 0.0, 0.01)"
2025/07/11/14:10:40.125305,275,1752243040,124966683,imu_link,0.004160739779808477,-0.00248684077600908,-0.9714042930934152,0.23738197746906095,"(0.001, 0.0, 0.0, 0.0, 0.001, 0.0, 0.0, 0.0, 0.001)",0.03621899020724827,0.001065264417860243,-0.2545981958685981,"(1e-05, 0.0, 0.0, 0.0, 1e-05, 0.0, 0.0, 0.0, 1e-05)",-0.784765625,0.44501953125000004,9.718652343750001,"(0.01, 0.0, 0.0, 0.0, 0.01, 0.0, 0.0, 0.0, 0.01)"
2025/07/11/14:10:40.175562,276,1752243040,175259045,imu_link,0.0042846506652405,-0.0033197061823930438,-0.9730285601493278,0.23062099308880174,"(0.001, 0.0, 0.0, 0.0, 0.001, 0.0, 0.0, 0.0, 0.001)",0.0841558890109592,-0.029827403700086803,-0.2780340130615234,"(1e-05, 0.0, 0.0, 0.0, 1e-05, 0.0, 0.0, 0.0, 1e-05)",-0.11484375000000001,0.5550781250000001,9.398046875,"(0.01, 0.0, 0.0, 0.0, 0.01, 0.0, 0.0, 0.0, 0.01)"
2025/07/11/14:10:40.212893,277,1752243040,212445766,imu_link,0.003928858117177951,-0.0038176828697680768,-0.9744894191781424,0.22436657790599704,"(0.001, 0.0, 0.0, 0.0, 0.001, 0.0, 0.0, 0.0, 0.001)",0.022370552775065104,0.017044230685763887,-0.2577939891221788,"(1e-05, 0.0, 0.0, 0.0, 1e-05, 0.0, 0.0, 0.0, 1e-05)",-0.11484375000000001,0.5550781250000001,9.398046875,"(0.01, 0.0, 0.0, 0.0, 0.01, 0.0, 0.0, 0.0, 0.01)"
2025/07/11/14:10:40.225830,278,1752243040,225498515,imu_link,0.003928858117177951,-0.0038176828697680768,-0.9744894191781424,0.22436657790599704,"(0.001, 0.0, 0.0, 0.0, 0.001, 0.0, 0.0, 0.0, 0.001)",0.022370552775065104,0.017044230685763887,-0.2577939891221788,"(1e-05, 0.0, 0.0, 0.0, 1e-05, 0.0, 0.0, 0.0, 1e-05)",0.028710937500000002,0.23447265625000002,9.59423828125,"(0.01, 0.0, 0.0, 0.0, 0.01, 0.0, 0.0, 0.0, 0.01)"
2025/07/11/14:10:40.276054,279,1752243040,275741113,imu_link,0.004170835417047898,-0.0034867543938588465,-0.9757957437961594,0.21861636046970698,"(0.001, 0.0, 0.0, 0.0, 0.001, 0.0, 0.0, 0.0, 0.001)",-0.01065264417860243,-0.001065264417860243,-0.2471413449435764,"(1e-05, 0.0, 0.0, 0.0, 1e-05, 0.0, 0.0, 0.0, 1e-05)",0.06220703125,0.18662109375000002,10.12060546875,"(0.01, 0.0, 0.0, 0.0, 0.01, 0.0, 0.0, 0.0, 0.01)"
2025/07/11/14:10:40.313023,280,1752243040,312420413,imu_link,0.004187500072195351,-0.0034534402601390218,-0.9770270100322803,0.21304638053930275,"(0.001, 0.0, 0.0, 0.0, 0.001, 0.0, 0.0, 0.0, 0.001)",0.006391586507161458,-0.003195793253580729,-0.24501081610785594,"(1e-05, 0.0, 0.0, 0.0, 1e-05, 0.0, 0.0, 0.0, 1e-05)",0.06220703125,0.18662109375000002,10.12060546875,"(0.01, 0.0, 0.0, 0.0, 0.01, 0.0, 0.0, 0.0, 0.01)"
2025/07/11/14:10:40.326348,281,1752243040,325970361,imu_link,0.004187500072195351,-0.0034534402601390218,-0.9770270100322803,0.21304638053930275,"(0.001, 0.0, 0.0, 0.0, 0.001, 0.0, 0.0, 0.0, 0.001)",0.006391586507161458,-0.003195793253580729,-0.24501081610785594,"(1e-05, 0.0, 0.0, 0.0, 1e-05, 0.0, 0.0, 0.0, 1e-05)",-0.287109375,0.3923828125,9.68037109375,"(0.01, 0.0, 0.0, 0.0, 0.01, 0.0, 0.0, 0.0, 0.01)"
2025/07/11/14:10:40.376580,282,1752243040,376240196,imu_link,0.004283332709992678,-0.003796603212351129,-0.9782747919299867,0.20723337168343575,"(0.001, 0.0, 0.0, 0.0, 0.001, 0.0, 0.0, 0.0, 0.001)",0.011717908596462675,0.0,-0.2545981958685981,"(1e-05, 0.0, 0.0, 0.0, 1e-05, 0.0, 0.0, 0.0, 1e-05)",0.11484375000000001,0.23447265625000002,9.48896484375,"(0.01, 0.0, 0.0, 0.0, 0.01, 0.0, 0.0, 0.0, 0.01)"
2025/07/11/14:10:40.412772,283,1752243040,412358473,imu_link,0.004166734121298797,-0.004087133618227651,-0.9795562494268412,0.20108577243149103,"(0.001, 0.0, 0.0, 0.0, 0.001, 0.0, 0.0, 0.0, 0.001)",0.01065264417860243,0.018109495103624133,-0.27057716213650174,"(1e-05, 0.0, 0.0, 0.0, 1e-05, 0.0, 0.0, 0.0, 1e-05)",0.11484375000000001,0.23447265625000002,9.48896484375,"(0.01, 0.0, 0.0, 0.0, 0.01, 0.0, 0.0, 0.0, 0.01)"
2025/07/11/14:10:40.426878,284,1752243040,426480798,imu_link,0.004166734121298797,-0.004087133618227651,-0.9795562494268412,0.20108577243149103,"(0.001, 0.0, 0.0, 0.0, 0.001, 0.0, 0.0, 0.0, 0.001)",0.01065264417860243,0.018109495103624133,-0.27057716213650174,"(1e-05, 0.0, 0.0, 0.0, 1e-05, 0.0, 0.0, 0.0, 1e-05)",-0.0861328125,0.11005859375,9.91962890625,"(0.01, 0.0, 0.0, 0.0, 0.01, 0.0, 0.0, 0.0, 0.01)"
2025/07/11/14:10:40.477109,285,1752243040,476739238,imu_link,0.0045407237623532205,-0.003940517457683367,-0.9810319126710725,0.19375303990084036,"(0.001, 0.0, 0.0, 0.0, 0.001, 0.0, 0.0, 0.0, 0.001)",-0.02130528835720486,0.008522115342881944,-0.3217098541937934,"(1e-05, 0.0, 0.0, 0.0, 1e-05, 0.0, 0.0, 0.0, 1e-05)",-0.26318359375,0.019140625,9.981835937500001,"(0.01, 0.0, 0.0, 0.0, 0.01, 0.0, 0.0, 0.0, 0.01)"
2025/07/11/14:10:40.513076,286,1752243040,512540097,imu_link,0.004809829355390585,-0.0037758177037512325,-0.9826578900809638,0.18532695379752176,"(0.001, 0.0, 0.0, 0.0, 0.001, 0.0, 0.0, 0.0, 0.001)",0.0,0.022370552775065104,-0.35473305114746095,"(1e-05, 0.0, 0.0, 0.0, 1e-05, 0.0, 0.0, 0.0, 1e-05)",-0.26318359375,0.019140625,9.981835937500001,"(0.01, 0.0, 0.0, 0.0, 0.01, 0.0, 0.0, 0.0, 0.01)"
2025/07/11/14:10:40.527291,287,1752243040,526992338,imu_link,0.004809829355390585,-0.0037758177037512325,-0.9826578900809638,0.18532695379752176,"(0.001, 0.0, 0.0, 0.0, 0.001, 0.0, 0.0, 0.0, 0.001)",0.0,0.022370552775065104,-0.35473305114746095,"(1e-05, 0.0, 0.0, 0.0, 1e-05, 0.0, 0.0, 0.0, 1e-05)",0.0,-0.06699218750000001,9.843066406250001,"(0.01, 0.0, 0.0, 0.0, 0.01, 0.0, 0.0, 0.0, 0.01)"
2025/07/11/14:10:40.577531,288,1752243040,577244996,imu_link,0.004903235431402875,-0.003991528801416018,-0.9843124677777129,0.17632070711484943,"(0.001, 0.0, 0.0, 0.0, 0.001, 0.0, 0.0, 0.0, 0.001)",0.009587379760742188,-0.006391586507161458,-0.3781688683403863,"(1e-05, 0.0, 0.0, 0.0, 1e-05, 0.0, 0.0, 0.0, 1e-05)",-0.6077148437500001,0.3541015625,9.780859375,"(0.01, 0.0, 0.0, 0.0, 0.01, 0.0, 0.0, 0.0, 0.01)"
2025/07/11/14:10:40.613034,289,1752243040,612491033,imu_link,0.0055504904286325235,-0.0049452680151207485,-0.9860232232220151,0.16644200085053235,"(0.001, 0.0, 0.0, 0.0, 0.001, 0.0, 0.0, 0.0, 0.001)",0.07563377366807725,0.03728425462510851,-0.4005394211154514,"(1e-05, 0.0, 0.0, 0.0, 1e-05, 0.0, 0.0, 0.0, 1e-05)",-0.6077148437500001,0.3541015625,9.780859375,"(0.01, 0.0, 0.0, 0.0, 0.01, 0.0, 0.0, 0.0, 0.01)"
2025/07/11/14:10:40.627887,290,1752243040,627527567,imu_link,0.0055504904286325235,-0.0049452680151207485,-0.9860232232220151,0.16644200085053235,"(0.001, 0.0, 0.0, 0.0, 0.001, 0.0, 0.0, 0.0, 0.001)",0.07563377366807725,0.03728425462510851,-0.4005394211154514,"(1e-05, 0.0, 0.0, 0.0, 1e-05, 0.0, 0.0, 0.0, 1e-05)",0.08134765625000001,0.31582031250000003,9.78564453125,"(0.01, 0.0, 0.0, 0.0, 0.01, 0.0, 0.0, 0.0, 0.01)"
2025/07/11/14:10:40.678063,291,1752243040,677754872,imu_link,0.005622271657929378,-0.005467373402912047,-0.9876610788823459,0.15641000975141614,"(0.001, 0.0, 0.0, 0.0, 0.001, 0.0, 0.0, 0.0, 0.001)",-0.005326322089301215,0.031957932535807296,-0.3973436278618706,"(1e-05, 0.0, 0.0, 0.0, 1e-05, 0.0, 0.0, 0.0, 1e-05)",-0.18662109375000002,0.0,9.78564453125,"(0.01, 0.0, 0.0, 0.0, 0.01, 0.0, 0.0, 0.0, 0.01)"
2025/07/11/14:10:40.713119,292,1752243040,712541170,imu_link,0.006237034243083375,-0.0054736768239942064,-0.9892036147120173,0.14631249743803773,"(0.001, 0.0, 0.0, 0.0, 0.001, 0.0, 0.0, 0.0, 0.001)",0.031957932535807296,0.02130528835720486,-0.3994741566975912,"(1e-05, 0.0, 0.0, 0.0, 1e-05, 0.0, 0.0, 0.0, 1e-05)",-0.18662109375000002,0.0,9.78564453125,"(0.01, 0.0, 0.0, 0.0, 0.01, 0.0, 0.0, 0.0, 0.01)"
2025/07/11/14:10:40.728356,293,1752243040,727973528,imu_link,0.006237034243083375,-0.0054736768239942064,-0.9892036147120173,0.14631249743803773,"(0.001, 0.0, 0.0, 0.0, 0.001, 0.0, 0.0, 0.0, 0.001)",0.031957932535807296,0.02130528835720486,-0.3994741566975912,"(1e-05, 0.0, 0.0, 0.0, 1e-05, 0.0, 0.0, 0.0, 1e-05)",0.057421875000000004,0.2201171875,9.90048828125,"(0.01, 0.0, 0.0, 0.0, 0.01, 0.0, 0.0, 0.0, 0.01)"
2025/07/11/14:10:40.778577,294,1752243040,778259667,imu_link,0.006193879227490425,-0.005632050962653412,-0.9906454212704574,0.1362041305465701,"(0.001, 0.0, 0.0, 0.0, 0.001, 0.0, 0.0, 0.0, 0.001)",0.009587379760742188,0.022370552775065104,-0.39521309902615015,"(1e-05, 0.0, 0.0, 0.0, 1e-05, 0.0, 0.0, 0.0, 1e-05)",0.0,-0.095703125,9.90048828125,"(0.01, 0.0, 0.0, 0.0, 0.01, 0.0, 0.0, 0.0, 0.01)"
2025/07/11/14:10:40.813070,295,1752243040,812529786,imu_link,0.00652360401937037,-0.005692922477349235,-0.9919582076357616,0.126269345164662,"(0.001, 0.0, 0.0, 0.0, 0.001, 0.0, 0.0, 0.0, 0.001)",0.03621899020724827,0.039414783460828995,-0.38456045484754775,"(1e-05, 0.0, 0.0, 0.0, 1e-05, 0.0, 0.0, 0.0, 1e-05)",0.0,-0.095703125,9.90048828125,"(0.01, 0.0, 0.0, 0.0, 0.01, 0.0, 0.0, 0.0, 0.01)"
2025/07/11/14:10:40.828876,296,1752243040,828486871,imu_link,0.00652360401937037,-0.005692922477349235,-0.9919582076357616,0.126269345164662,"(0.001, 0.0, 0.0, 0.0, 0.001, 0.0, 0.0, 0.0, 0.001)",0.03621899020724827,0.039414783460828995,-0.38456045484754775,"(1e-05, 0.0, 0.0, 0.0, 1e-05, 0.0, 0.0, 0.0, 1e-05)",0.5455078125,0.3828125,9.699511718750001,"(0.01, 0.0, 0.0, 0.0, 0.01, 0.0, 0.0, 0.0, 0.01)"
2025/07/11/14:10:40.879093,297,1752243040,878725891,imu_link,0.0069574203985814315,-0.006283759952929293,-0.9932456301171293,0.1156513160992052,"(0.001, 0.0, 0.0, 0.0, 0.001, 0.0, 0.0, 0.0, 0.001)",0.01065264417860243,0.011717908596462675,-0.4356931469048394,"(1e-05, 0.0, 0.0, 0.0, 1e-05, 0.0, 0.0, 0.0, 1e-05)",-0.14833984375,0.6412109375,9.599023437500001,"(0.01, 0.0, 0.0, 0.0, 0.01, 0.0, 0.0, 0.0, 0.01)"
2025/07/11/14:10:40.912630,298,1752243040,912316907,imu_link,0.0074553447218441565,-0.006358567502387148,-0.9946112400725549,0.1032107919538011,"(0.001, 0.0, 0.0, 0.0, 0.001, 0.0, 0.0, 0.0, 0.001)",-0.005326322089301215,0.025566346028645832,-0.4804342524549696,"(1e-05, 0.0, 0.0, 0.0, 1e-05, 0.0, 0.0, 0.0, 1e-05)",-0.14833984375,0.6412109375,9.599023437500001,"(0.01, 0.0, 0.0, 0.0, 0.01, 0.0, 0.0, 0.0, 0.01)"
2025/07/11/14:10:40.929424,299,1752243040,928990885,imu_link,0.0074553447218441565,-0.006358567502387148,-0.9946112400725549,0.1032107919538011,"(0.001, 0.0, 0.0, 0.0, 0.001, 0.0, 0.0, 0.0, 0.001)",-0.005326322089301215,0.025566346028645832,-0.4804342524549696,"(1e-05, 0.0, 0.0, 0.0, 1e-05, 0.0, 0.0, 0.0, 1e-05)",0.248828125,-0.18183593750000002,9.914843750000001,"(0.01, 0.0, 0.0, 0.0, 0.01, 0.0, 0.0, 0.0, 0.01)"
2025/07/11/14:10:40.979630,300,1752243040,979223070,imu_link,0.007617293255855913,-0.006002157609283229,-0.9959035153050037,0.08990071829870912,"(0.001, 0.0, 0.0, 0.0, 0.001, 0.0, 0.0, 0.0, 0.001)",-0.001065264417860243,0.029827403700086803,-0.5102616561550565,"(1e-05, 0.0, 0.0, 0.0, 1e-05, 0.0, 0.0, 0.0, 1e-05)",0.0,-0.03828125,10.2880859375,"(0.01, 0.0, 0.0, 0.0, 0.01, 0.0, 0.0, 0.0, 0.01)"
2025/07/11/14:10:41.012960,301,1752243041,12462398,imu_link,0.008706603133574969,-0.006405983893895325,-0.9970791864640809,0.07560591479740467,"(0.001, 0.0, 0.0, 0.0, 0.001, 0.0, 0.0, 0.0, 0.001)",-0.014913701850043402,-0.005326322089301215,-0.5368932666015624,"(1e-05, 0.0, 0.0, 0.0, 1e-05, 0.0, 0.0, 0.0, 1e-05)",0.0,-0.03828125,10.2880859375,"(0.01, 0.0, 0.0, 0.0, 0.01, 0.0, 0.0, 0.0, 0.01)"
2025/07/11/14:10:41.029938,302,1752243041,29537889,imu_link,0.008706603133574969,-0.006405983893895325,-0.9970791864640809,0.07560591479740467,"(0.001, 0.0, 0.0, 0.0, 0.001, 0.0, 0.0, 0.0, 0.001)",-0.014913701850043402,-0.005326322089301215,-0.5368932666015624,"(1e-05, 0.0, 0.0, 0.0, 1e-05, 0.0, 0.0, 0.0, 1e-05)",-0.14833984375,0.07177734375,9.895703125,"(0.01, 0.0, 0.0, 0.0, 0.01, 0.0, 0.0, 0.0, 0.01)"
2025/07/11/14:10:41.079970,303,1752243041,79735394,imu_link,0.008948593047889029,-0.006561637473941563,-0.9980867045245366,0.06082596359675877,"(0.001, 0.0, 0.0, 0.0, 0.001, 0.0, 0.0, 0.0, 0.001)",-0.004261057671440972,-0.006391586507161458,-0.5539374972873264,"(1e-05, 0.0, 0.0, 0.0, 1e-05, 0.0, 0.0, 0.0, 1e-05)",0.15791015625000002,0.22490234375,9.7138671875,"(0.01, 0.0, 0.0, 0.0, 0.01, 0.0, 0.0, 0.0, 0.01)"
2025/07/11/14:10:41.113088,304,1752243041,112512270,imu_link,0.009367061906119781,-0.006479388740423224,-0.9988837710976485,0.045841984147045316,"(0.001, 0.0, 0.0, 0.0, 0.001, 0.0, 0.0, 0.0, 0.001)",-0.039414783460828995,0.011717908596462675,-0.5645901414659288,"(1e-05, 0.0, 0.0, 0.0, 1e-05, 0.0, 0.0, 0.0, 1e-05)",0.15791015625000002,0.22490234375,9.7138671875,"(0.01, 0.0, 0.0, 0.0, 0.01, 0.0, 0.0, 0.0, 0.01)"
2025/07/11/14:10:41.130386,305,1752243041,129999289,imu_link,0.009367061906119781,-0.006479388740423224,-0.9988837710976485,0.045841984147045316,"(0.001, 0.0, 0.0, 0.0, 0.001, 0.0, 0.0, 0.0, 0.001)",-0.039414783460828995,0.011717908596462675,-0.5645901414659288,"(1e-05, 0.0, 0.0, 0.0, 1e-05, 0.0, 0.0, 0.0, 1e-05)",-0.5550781250000001,0.56943359375,9.766503906250001,"(0.01, 0.0, 0.0, 0.0, 0.01, 0.0, 0.0, 0.0, 0.01)"
2025/07/11/14:10:41.180644,306,1752243041,180281353,imu_link,0.010157867634297747,-0.005971555453305841,-0.9994648748782354,0.03051429394931857,"(0.001, 0.0, 0.0, 0.0, 0.001, 0.0, 0.0, 0.0, 0.001)",-0.022370552775065104,0.039414783460828995,-0.578438578898112,"(1e-05, 0.0, 0.0, 0.0, 1e-05, 0.0, 0.0, 0.0, 1e-05)",-0.19140625,0.19140625,9.962695312500001,"(0.01, 0.0, 0.0, 0.0, 0.01, 0.0, 0.0, 0.0, 0.01)"
2025/07/11/14:10:41.213104,307,1752243041,212533212,imu_link,0.010679564666303445,-0.005738825333039353,-0.9998184373625143,0.014700513335088329,"(0.001, 0.0, 0.0, 0.0, 0.001, 0.0, 0.0, 0.0, 0.001)",-0.011717908596462675,0.025566346028645832,-0.5997438672553168,"(1e-05, 0.0, 0.0, 0.0, 1e-05, 0.0, 0.0, 0.0, 1e-05)",-0.19140625,0.19140625,9.962695312500001,"(0.01, 0.0, 0.0, 0.0, 0.01, 0.0, 0.0, 0.0, 0.01)"
2025/07/11/14:10:41.230999,308,1752243041,230517740,imu_link,0.010679564666303445,-0.005738825333039353,-0.9998184373625143,0.014700513335088329,"(0.001, 0.0, 0.0, 0.0, 0.001, 0.0, 0.0, 0.0, 0.001)",-0.011717908596462675,0.025566346028645832,-0.5997438672553168,"(1e-05, 0.0, 0.0, 0.0, 1e-05, 0.0, 0.0, 0.0, 1e-05)",0.3349609375,-0.07177734375,10.0009765625,"(0.01, 0.0, 0.0, 0.0, 0.01, 0.0, 0.0, 0.0, 0.01)"
2025/07/11/14:10:41.281282,309,1752243041,280987951,imu_link,-0.01096382697494039,0.005920566304028516,0.9999196818159636,0.0023176086307590995,"(0.001, 0.0, 0.0, 0.0, 0.001, 0.0, 0.0, 0.0, 0.001)",0.017044230685763887,0.019174759521484376,-0.6348975930447048,"(1e-05, 0.0, 0.0, 0.0, 1e-05, 0.0, 0.0, 0.0, 1e-05)",0.29189453125000003,0.2201171875,9.627734375000001,"(0.01, 0.0, 0.0, 0.0, 0.01, 0.0, 0.0, 0.0, 0.01)"
2025/07/11/14:10:41.312751,310,1752243041,312329751,imu_link,-0.011238636740643775,0.006171265661658199,0.9997137831806643,0.02019802571908535,"(0.001, 0.0, 0.0, 0.0, 0.001, 0.0, 0.0, 0.0, 0.001)",0.009587379760742188,0.025566346028645832,-0.6625944679090712,"(1e-05, 0.0, 0.0, 0.0, 1e-05, 0.0, 0.0, 0.0, 1e-05)",0.29189453125000003,0.2201171875,9.627734375000001,"(0.01, 0.0, 0.0, 0.0, 0.01, 0.0, 0.0, 0.0, 0.01)"
2025/07/11/14:10:41.331398,311,1752243041,331041423,imu_link,-0.011238636740643775,0.006171265661658199,0.9997137831806643,0.02019802571908535,"(0.001, 0.0, 0.0, 0.0, 0.001, 0.0, 0.0, 0.0, 0.001)",0.009587379760742188,0.025566346028645832,-0.6625944679090712,"(1e-05, 0.0, 0.0, 0.0, 1e-05, 0.0, 0.0, 0.0, 1e-05)",0.12919921875,0.12919921875,9.723437500000001,"(0.01, 0.0, 0.0, 0.0, 0.01, 0.0, 0.0, 0.0, 0.01)"
2025/07/11/14:10:41.381574,312,1752243041,381237074,imu_link,-0.011902739334514535,0.006070735592723544,0.999167399891107,0.038548384668392936,"(0.001, 0.0, 0.0, 0.0, 0.001, 0.0, 0.0, 0.0, 0.001)",-0.003195793253580729,0.02024002393934462,-0.6711165832519531,"(1e-05, 0.0, 0.0, 0.0, 1e-05, 0.0, 0.0, 0.0, 1e-05)",-0.16269531250000002,0.17705078125,10.077539062500001,"(0.01, 0.0, 0.0, 0.0, 0.01, 0.0, 0.0, 0.0, 0.01)"
2025/07/11/14:10:41.412973,313,1752243041,412431132,imu_link,-0.012487025034138103,0.005804704559397637,0.9982640462822353,0.05726494137772234,"(0.001, 0.0, 0.0, 0.0, 0.001, 0.0, 0.0, 0.0, 0.001)",-0.015978966267903648,0.007456850925021701,-0.6796386985948351,"(1e-05, 0.0, 0.0, 0.0, 1e-05, 0.0, 0.0, 0.0, 1e-05)",-0.16269531250000002,0.17705078125,10.077539062500001,"(0.01, 0.0, 0.0, 0.0, 0.01, 0.0, 0.0, 0.0, 0.01)"
2025/07/11/14:10:41.432273,314,1752243041,431592912,imu_link,-0.012487025034138103,0.005804704559397637,0.9982640462822353,0.05726494137772234,"(0.001, 0.0, 0.0, 0.0, 0.001, 0.0, 0.0, 0.0, 0.001)",-0.015978966267903648,0.007456850925021701,-0.6796386985948351,"(1e-05, 0.0, 0.0, 0.0, 1e-05, 0.0, 0.0, 0.0, 1e-05)",-0.593359375,0.23925781250000003,9.85263671875,"(0.01, 0.0, 0.0, 0.0, 0.01, 0.0, 0.0, 0.0, 0.01)"
2025/07/11/14:10:41.482102,315,1752243041,481762698,imu_link,-0.01339960595239369,0.005831795066169319,0.9969778577007551,0.07629935767121306,"(0.001, 0.0, 0.0, 0.0, 0.001, 0.0, 0.0, 0.0, 0.001)",-0.005326322089301215,0.051132692057291665,-0.6913566071912978,"(1e-05, 0.0, 0.0, 0.0, 1e-05, 0.0, 0.0, 0.0, 1e-05)",0.29189453125000003,-0.02392578125,9.666015625,"(0.01, 0.0, 0.0, 0.0, 0.01, 0.0, 0.0, 0.0, 0.01)"
2025/07/11/14:10:41.512886,316,1752243041,512357043,imu_link,-0.01355479871563369,0.00577908409510665,0.9953119029470093,0.09558810318655567,"(0.001, 0.0, 0.0, 0.0, 0.001, 0.0, 0.0, 0.0, 0.001)",0.02024002393934462,0.03089266811794705,-0.6988134581163195,"(1e-05, 0.0, 0.0, 0.0, 1e-05, 0.0, 0.0, 0.0, 1e-05)",0.29189453125000003,-0.02392578125,9.666015625,"(0.01, 0.0, 0.0, 0.0, 0.01, 0.0, 0.0, 0.0, 0.01)"
2025/07/11/14:10:41.532737,317,1752243041,532076689,imu_link,-0.01355479871563369,0.00577908409510665,0.9953119029470093,0.09558810318655567,"(0.001, 0.0, 0.0, 0.0, 0.001, 0.0, 0.0, 0.0, 0.001)",0.02024002393934462,0.03089266811794705,-0.6988134581163195,"(1e-05, 0.0, 0.0, 0.0, 1e-05, 0.0, 0.0, 0.0, 1e-05)",0.028710937500000002,0.32539062500000004,9.72822265625,"(0.01, 0.0, 0.0, 0.0, 0.01, 0.0, 0.0, 0.0, 0.01)"
2025/07/11/14:10:41.582770,318,1752243041,582353522,imu_link,-0.014523331290838088,0.0058358376834866665,0.9931996754300849,0.11536646207768737,"(0.001, 0.0, 0.0, 0.0, 0.001, 0.0, 0.0, 0.0, 0.001)",-0.006391586507161458,0.043675841132269966,-0.7094661022949219,"(1e-05, 0.0, 0.0, 0.0, 1e-05, 0.0, 0.0, 0.0, 1e-05)",-0.30625,0.0861328125,9.85263671875,"(0.01, 0.0, 0.0, 0.0, 0.01, 0.0, 0.0, 0.0, 0.01)"
2025/07/11/14:10:41.613094,319,1752243041,612564268,imu_link,-0.015316616312496888,0.005440923657628443,0.9905700231012055,0.13603979913159525,"(0.001, 0.0, 0.0, 0.0, 0.001, 0.0, 0.0, 0.0, 0.001)",-0.015978966267903648,0.04154531229654948,-0.7350324483235676,"(1e-05, 0.0, 0.0, 0.0, 1e-05, 0.0, 0.0, 0.0, 1e-05)",-0.30625,0.0861328125,9.85263671875,"(0.01, 0.0, 0.0, 0.0, 0.01, 0.0, 0.0, 0.0, 0.01)"
2025/07/11/14:10:41.633278,320,1752243041,632671973,imu_link,-0.015316616312496888,0.005440923657628443,0.9905700231012055,0.13603979913159525,"(0.001, 0.0, 0.0, 0.0, 0.001, 0.0, 0.0, 0.0, 0.001)",-0.015978966267903648,0.04154531229654948,-0.7350324483235676,"(1e-05, 0.0, 0.0, 0.0, 1e-05, 0.0, 0.0, 0.0, 1e-05)",0.028710937500000002,0.09091796875000001,9.938769531250001,"(0.01, 0.0, 0.0, 0.0, 0.01, 0.0, 0.0, 0.0, 0.01)"
2025/07/11/14:10:41.683147,321,1752243041,682803749,imu_link,-0.015877841449981913,0.005147467825123768,0.9874298013335492,0.15717437820543828,"(0.001, 0.0, 0.0, 0.0, 0.001, 0.0, 0.0, 0.0, 0.001)",-0.007456850925021701,0.051132692057291665,-0.7350324483235676,"(1e-05, 0.0, 0.0, 0.0, 1e-05, 0.0, 0.0, 0.0, 1e-05)",0.2009765625,0.32539062500000004,9.56552734375,"(0.01, 0.0, 0.0, 0.0, 0.01, 0.0, 0.0, 0.0, 0.01)"
2025/07/11/14:10:41.712946,322,1752243041,712325182,imu_link,-0.016319041718788767,0.005106557164033795,0.9837614794201364,0.1786643880587714,"(0.001, 0.0, 0.0, 0.0, 0.001, 0.0, 0.0, 0.0, 0.001)",0.0,0.07030745157877605,-0.7403587704128689,"(1e-05, 0.0, 0.0, 0.0, 1e-05, 0.0, 0.0, 0.0, 1e-05)",0.2009765625,0.32539062500000004,9.56552734375,"(0.01, 0.0, 0.0, 0.0, 0.01, 0.0, 0.0, 0.0, 0.01)"
2025/07/11/14:10:41.733503,323,1752243041,733072354,imu_link,-0.016319041718788767,0.005106557164033795,0.9837614794201364,0.1786643880587714,"(0.001, 0.0, 0.0, 0.0, 0.001, 0.0, 0.0, 0.0, 0.001)",0.0,0.07030745157877605,-0.7403587704128689,"(1e-05, 0.0, 0.0, 0.0, 1e-05, 0.0, 0.0, 0.0, 1e-05)",-0.29189453125000003,0.23925781250000003,9.6564453125,"(0.01, 0.0, 0.0, 0.0, 0.01, 0.0, 0.0, 0.0, 0.01)"
2025/07/11/14:10:41.783828,324,1752243041,783346311,imu_link,-0.017304415459332808,0.004860496441901781,0.979551192971535,0.20039060139635154,"(0.001, 0.0, 0.0, 0.0, 0.001, 0.0, 0.0, 0.0, 0.001)",0.0,0.02024002393934462,-0.7371629771592882,"(1e-05, 0.0, 0.0, 0.0, 1e-05, 0.0, 0.0, 0.0, 1e-05)",-0.18662109375000002,0.25361328125000004,9.953125,"(0.01, 0.0, 0.0, 0.0, 0.01, 0.0, 0.0, 0.0, 0.01)"
2025/07/11/14:10:41.813295,325,1752243041,812724030,imu_link,-0.017971497978142258,0.004841908016406305,0.974725567148304,0.22262895124983034,"(0.001, 0.0, 0.0, 0.0, 0.001, 0.0, 0.0, 0.0, 0.001)",-0.001065264417860243,0.03089266811794705,-0.748880885755751,"(1e-05, 0.0, 0.0, 0.0, 1e-05, 0.0, 0.0, 0.0, 1e-05)",-0.18662109375000002,0.25361328125000004,9.953125,"(0.01, 0.0, 0.0, 0.0, 0.01, 0.0, 0.0, 0.0, 0.01)"
2025/07/11/14:10:41.834056,326,1752243041,833584602,imu_link,-0.017971497978142258,0.004841908016406305,0.974725567148304,0.22262895124983034,"(0.001, 0.0, 0.0, 0.0, 0.001, 0.0, 0.0, 0.0, 0.001)",-0.001065264417860243,0.03089266811794705,-0.748880885755751,"(1e-05, 0.0, 0.0, 0.0, 1e-05, 0.0, 0.0, 0.0, 1e-05)",0.19619140625,-0.25361328125000004,9.972265625,"(0.01, 0.0, 0.0, 0.0, 0.01, 0.0, 0.0, 0.0, 0.01)"
