time,.header.seq,.header.stamp.secs,.header.stamp.nsecs,.header.frame_id,.orientation.x,.orientation.y,.orientation.z,.orientation.w,.orientation_covariance,.angular_velocity.x,.angular_velocity.y,.angular_velocity.z,.angular_velocity_covariance,.linear_acceleration.x,.linear_acceleration.y,.linear_acceleration.z,.linear_acceleration_covariance
2025/07/11/14:06:03.501025,9,1752242763,500559279,imu_link,0.003250373609509978,-0.007049637511266898,-0.9618462264603198,0.2734804825328516,"(0.001, 0.0, 0.0, 0.0, 0.001, 0.0, 0.0, 0.0, 0.001)",0.0,0.0,0.0,"(1e-05, 0.0, 0.0, 0.0, 1e-05, 0.0, 0.0, 0.0, 1e-05)",-0.02392578125,0.13398437500000002,9.8095703125,"(0.01, 0.0, 0.0, 0.0, 0.01, 0.0, 0.0, 0.0, 0.01)"
2025/07/11/14:06:03.549284,10,1752242763,548852248,imu_link,0.003250373609509978,-0.007049637511266898,-0.9618462264603198,0.2734804825328516,"(0.001, 0.0, 0.0, 0.0, 0.001, 0.0, 0.0, 0.0, 0.001)",0.0,0.0,0.0,"(1e-05, 0.0, 0.0, 0.0, 1e-05, 0.0, 0.0, 0.0, 1e-05)",-0.02392578125,0.13398437500000002,9.8095703125,"(0.01, 0.0, 0.0, 0.0, 0.01, 0.0, 0.0, 0.0, 0.01)"
2025/07/11/14:06:03.551031,11,1752242763,550806047,imu_link,0.003250373609509978,-0.007049637511266898,-0.9618462264603198,0.2734804825328516,"(0.001, 0.0, 0.0, 0.0, 0.001, 0.0, 0.0, 0.0, 0.001)",0.0,0.0,0.0,"(1e-05, 0.0, 0.0, 0.0, 1e-05, 0.0, 0.0, 0.0, 1e-05)",-0.02392578125,0.13398437500000002,9.8095703125,"(0.01, 0.0, 0.0, 0.0, 0.01, 0.0, 0.0, 0.0, 0.01)"
2025/07/11/14:06:03.601505,12,1752242763,601101066,imu_link,0.003250373609509978,-0.007049637511266898,-0.9618462264603198,0.2734804825328516,"(0.001, 0.0, 0.0, 0.0, 0.001, 0.0, 0.0, 0.0, 0.001)",0.0,0.0,0.0,"(1e-05, 0.0, 0.0, 0.0, 1e-05, 0.0, 0.0, 0.0, 1e-05)",-0.02392578125,0.13398437500000002,9.8095703125,"(0.01, 0.0, 0.0, 0.0, 0.01, 0.0, 0.0, 0.0, 0.01)"
2025/07/11/14:06:03.649254,13,1752242763,648855574,imu_link,0.003250373609509978,-0.007049637511266898,-0.9618462264603198,0.2734804825328516,"(0.001, 0.0, 0.0, 0.0, 0.001, 0.0, 0.0, 0.0, 0.001)",0.0,0.0,0.0,"(1e-05, 0.0, 0.0, 0.0, 1e-05, 0.0, 0.0, 0.0, 1e-05)",-0.02392578125,0.13398437500000002,9.8095703125,"(0.01, 0.0, 0.0, 0.0, 0.01, 0.0, 0.0, 0.0, 0.01)"
2025/07/11/14:06:03.651566,14,1752242763,651326433,imu_link,0.003250373609509978,-0.007049637511266898,-0.9618462264603198,0.2734804825328516,"(0.001, 0.0, 0.0, 0.0, 0.001, 0.0, 0.0, 0.0, 0.001)",0.0,0.0,0.0,"(1e-05, 0.0, 0.0, 0.0, 1e-05, 0.0, 0.0, 0.0, 1e-05)",-0.02392578125,0.13398437500000002,9.8095703125,"(0.01, 0.0, 0.0, 0.0, 0.01, 0.0, 0.0, 0.0, 0.01)"
2025/07/11/14:06:03.701995,15,1752242763,701587889,imu_link,0.003250373609509978,-0.007049637511266898,-0.9618462264603198,0.2734804825328516,"(0.001, 0.0, 0.0, 0.0, 0.001, 0.0, 0.0, 0.0, 0.001)",0.0,0.0,0.0,"(1e-05, 0.0, 0.0, 0.0, 1e-05, 0.0, 0.0, 0.0, 1e-05)",-0.02392578125,0.13398437500000002,9.8095703125,"(0.01, 0.0, 0.0, 0.0, 0.01, 0.0, 0.0, 0.0, 0.01)"
2025/07/11/14:06:03.749279,16,1752242763,748862337,imu_link,0.003250373609509978,-0.007049637511266898,-0.9618462264603198,0.2734804825328516,"(0.001, 0.0, 0.0, 0.0, 0.001, 0.0, 0.0, 0.0, 0.001)",0.0,0.0,0.0,"(1e-05, 0.0, 0.0, 0.0, 1e-05, 0.0, 0.0, 0.0, 1e-05)",-0.02392578125,0.13398437500000002,9.8095703125,"(0.01, 0.0, 0.0, 0.0, 0.01, 0.0, 0.0, 0.0, 0.01)"
2025/07/11/14:06:03.752202,17,1752242763,751878480,imu_link,0.003250373609509978,-0.007049637511266898,-0.9618462264603198,0.2734804825328516,"(0.001, 0.0, 0.0, 0.0, 0.001, 0.0, 0.0, 0.0, 0.001)",0.0,0.0,0.0,"(1e-05, 0.0, 0.0, 0.0, 1e-05, 0.0, 0.0, 0.0, 1e-05)",-0.02392578125,0.13398437500000002,9.8095703125,"(0.01, 0.0, 0.0, 0.0, 0.01, 0.0, 0.0, 0.0, 0.01)"
2025/07/11/14:06:03.802540,18,1752242763,802123364,imu_link,0.003250373609509978,-0.007049637511266898,-0.9618462264603198,0.2734804825328516,"(0.001, 0.0, 0.0, 0.0, 0.001, 0.0, 0.0, 0.0, 0.001)",0.0,0.0,0.0,"(1e-05, 0.0, 0.0, 0.0, 1e-05, 0.0, 0.0, 0.0, 1e-05)",-0.02392578125,0.13398437500000002,9.8095703125,"(0.01, 0.0, 0.0, 0.0, 0.01, 0.0, 0.0, 0.0, 0.01)"
2025/07/11/14:06:03.849213,19,1752242763,848853049,imu_link,0.003250373609509978,-0.007049637511266898,-0.9618462264603198,0.2734804825328516,"(0.001, 0.0, 0.0, 0.0, 0.001, 0.0, 0.0, 0.0, 0.001)",0.0,0.0,0.0,"(1e-05, 0.0, 0.0, 0.0, 1e-05, 0.0, 0.0, 0.0, 1e-05)",-0.02392578125,0.13398437500000002,9.8095703125,"(0.01, 0.0, 0.0, 0.0, 0.01, 0.0, 0.0, 0.0, 0.01)"
2025/07/11/14:06:03.852694,20,1752242763,852408084,imu_link,0.003250373609509978,-0.007049637511266898,-0.9618462264603198,0.2734804825328516,"(0.001, 0.0, 0.0, 0.0, 0.001, 0.0, 0.0, 0.0, 0.001)",0.0,0.0,0.0,"(1e-05, 0.0, 0.0, 0.0, 1e-05, 0.0, 0.0, 0.0, 1e-05)",-0.02392578125,0.13398437500000002,9.8095703125,"(0.01, 0.0, 0.0, 0.0, 0.01, 0.0, 0.0, 0.0, 0.01)"
2025/07/11/14:06:03.903237,21,1752242763,902606081,imu_link,0.003250373609509978,-0.007049637511266898,-0.9618462264603198,0.2734804825328516,"(0.001, 0.0, 0.0, 0.0, 0.001, 0.0, 0.0, 0.0, 0.001)",0.0,0.0,0.0,"(1e-05, 0.0, 0.0, 0.0, 1e-05, 0.0, 0.0, 0.0, 1e-05)",-0.02392578125,0.13398437500000002,9.8095703125,"(0.01, 0.0, 0.0, 0.0, 0.01, 0.0, 0.0, 0.0, 0.01)"
2025/07/11/14:06:03.949304,22,1752242763,948869168,imu_link,0.003250373609509978,-0.007049637511266898,-0.9618462264603198,0.2734804825328516,"(0.001, 0.0, 0.0, 0.0, 0.001, 0.0, 0.0, 0.0, 0.001)",0.0,0.0,0.0,"(1e-05, 0.0, 0.0, 0.0, 1e-05, 0.0, 0.0, 0.0, 1e-05)",-0.02392578125,0.13398437500000002,9.8095703125,"(0.01, 0.0, 0.0, 0.0, 0.01, 0.0, 0.0, 0.0, 0.01)"
2025/07/11/14:06:03.953130,23,1752242763,952835887,imu_link,0.003250373609509978,-0.007049637511266898,-0.9618462264603198,0.2734804825328516,"(0.001, 0.0, 0.0, 0.0, 0.001, 0.0, 0.0, 0.0, 0.001)",0.0,0.0,0.0,"(1e-05, 0.0, 0.0, 0.0, 1e-05, 0.0, 0.0, 0.0, 1e-05)",-0.02392578125,0.13398437500000002,9.80478515625,"(0.01, 0.0, 0.0, 0.0, 0.01, 0.0, 0.0, 0.0, 0.01)"
2025/07/11/14:06:04.003601,24,1752242764,3187542,imu_link,0.003250373609509978,-0.007049637511266898,-0.9618462264603198,0.2734804825328516,"(0.001, 0.0, 0.0, 0.0, 0.001, 0.0, 0.0, 0.0, 0.001)",0.0,0.0,0.0,"(1e-05, 0.0, 0.0, 0.0, 1e-05, 0.0, 0.0, 0.0, 1e-05)",-0.02392578125,0.13398437500000002,9.80478515625,"(0.01, 0.0, 0.0, 0.0, 0.01, 0.0, 0.0, 0.0, 0.01)"
2025/07/11/14:06:04.049333,25,1752242764,48877896,imu_link,0.003250373609509978,-0.007049637511266898,-0.9618462264603198,0.2734804825328516,"(0.001, 0.0, 0.0, 0.0, 0.001, 0.0, 0.0, 0.0, 0.001)",0.0,0.0,0.0,"(1e-05, 0.0, 0.0, 0.0, 1e-05, 0.0, 0.0, 0.0, 1e-05)",-0.02392578125,0.13398437500000002,9.80478515625,"(0.01, 0.0, 0.0, 0.0, 0.01, 0.0, 0.0, 0.0, 0.01)"
2025/07/11/14:06:04.053602,26,1752242764,53331839,imu_link,0.003250373609509978,-0.007049637511266898,-0.9618462264603198,0.2734804825328516,"(0.001, 0.0, 0.0, 0.0, 0.001, 0.0, 0.0, 0.0, 0.001)",0.0,0.0,0.0,"(1e-05, 0.0, 0.0, 0.0, 1e-05, 0.0, 0.0, 0.0, 1e-05)",-0.02392578125,0.13398437500000002,9.8095703125,"(0.01, 0.0, 0.0, 0.0, 0.01, 0.0, 0.0, 0.0, 0.01)"
2025/07/11/14:06:04.104380,27,1752242764,103920310,imu_link,0.003250373609509978,-0.007049637511266898,-0.9618462264603198,0.2734804825328516,"(0.001, 0.0, 0.0, 0.0, 0.001, 0.0, 0.0, 0.0, 0.001)",0.0,0.0,0.0,"(1e-05, 0.0, 0.0, 0.0, 1e-05, 0.0, 0.0, 0.0, 1e-05)",-0.02392578125,0.13398437500000002,9.80478515625,"(0.01, 0.0, 0.0, 0.0, 0.01, 0.0, 0.0, 0.0, 0.01)"
2025/07/11/14:06:04.149312,28,1752242764,148877367,imu_link,0.003250373609509978,-0.007049637511266898,-0.9618462264603198,0.2734804825328516,"(0.001, 0.0, 0.0, 0.0, 0.001, 0.0, 0.0, 0.0, 0.001)",0.0,0.0,0.0,"(1e-05, 0.0, 0.0, 0.0, 1e-05, 0.0, 0.0, 0.0, 1e-05)",-0.02392578125,0.13398437500000002,9.80478515625,"(0.01, 0.0, 0.0, 0.0, 0.01, 0.0, 0.0, 0.0, 0.01)"
2025/07/11/14:06:04.154111,29,1752242764,153814357,imu_link,0.003250373609509978,-0.007049637511266898,-0.9618462264603198,0.2734804825328516,"(0.001, 0.0, 0.0, 0.0, 0.001, 0.0, 0.0, 0.0, 0.001)",0.0,0.0,0.0,"(1e-05, 0.0, 0.0, 0.0, 1e-05, 0.0, 0.0, 0.0, 1e-05)",-0.02392578125,0.13398437500000002,9.8095703125,"(0.01, 0.0, 0.0, 0.0, 0.01, 0.0, 0.0, 0.0, 0.01)"
2025/07/11/14:06:04.204809,30,1752242764,204318420,imu_link,0.003250373609509978,-0.007049637511266898,-0.9618462264603198,0.2734804825328516,"(0.001, 0.0, 0.0, 0.0, 0.001, 0.0, 0.0, 0.0, 0.001)",0.0,0.0,0.0,"(1e-05, 0.0, 0.0, 0.0, 1e-05, 0.0, 0.0, 0.0, 1e-05)",-0.02392578125,0.13398437500000002,9.8095703125,"(0.01, 0.0, 0.0, 0.0, 0.01, 0.0, 0.0, 0.0, 0.01)"
2025/07/11/14:06:04.249275,31,1752242764,248867861,imu_link,0.003250373609509978,-0.007049637511266898,-0.9618462264603198,0.2734804825328516,"(0.001, 0.0, 0.0, 0.0, 0.001, 0.0, 0.0, 0.0, 0.001)",0.0,0.0,0.0,"(1e-05, 0.0, 0.0, 0.0, 1e-05, 0.0, 0.0, 0.0, 1e-05)",-0.02392578125,0.13398437500000002,9.8095703125,"(0.01, 0.0, 0.0, 0.0, 0.01, 0.0, 0.0, 0.0, 0.01)"
2025/07/11/14:06:04.254560,32,1752242764,254319858,imu_link,0.003250373609509978,-0.007049637511266898,-0.9618462264603198,0.2734804825328516,"(0.001, 0.0, 0.0, 0.0, 0.001, 0.0, 0.0, 0.0, 0.001)",0.0,0.0,0.0,"(1e-05, 0.0, 0.0, 0.0, 1e-05, 0.0, 0.0, 0.0, 1e-05)",-0.02392578125,0.13876953125000002,9.8095703125,"(0.01, 0.0, 0.0, 0.0, 0.01, 0.0, 0.0, 0.0, 0.01)"
2025/07/11/14:06:04.305004,33,1752242764,304583629,imu_link,0.003250373609509978,-0.007049637511266898,-0.9618462264603198,0.2734804825328516,"(0.001, 0.0, 0.0, 0.0, 0.001, 0.0, 0.0, 0.0, 0.001)",0.0,0.0,0.0,"(1e-05, 0.0, 0.0, 0.0, 1e-05, 0.0, 0.0, 0.0, 1e-05)",-0.02392578125,0.13398437500000002,9.8095703125,"(0.01, 0.0, 0.0, 0.0, 0.01, 0.0, 0.0, 0.0, 0.01)"
2025/07/11/14:06:04.349371,34,1752242764,348879955,imu_link,0.003250373609509978,-0.007049637511266898,-0.9618462264603198,0.2734804825328516,"(0.001, 0.0, 0.0, 0.0, 0.001, 0.0, 0.0, 0.0, 0.001)",0.0,0.0,0.0,"(1e-05, 0.0, 0.0, 0.0, 1e-05, 0.0, 0.0, 0.0, 1e-05)",-0.02392578125,0.13398437500000002,9.8095703125,"(0.01, 0.0, 0.0, 0.0, 0.01, 0.0, 0.0, 0.0, 0.01)"
2025/07/11/14:06:04.355217,35,1752242764,354822714,imu_link,0.003250373609509978,-0.007049637511266898,-0.9618462264603198,0.2734804825328516,"(0.001, 0.0, 0.0, 0.0, 0.001, 0.0, 0.0, 0.0, 0.001)",0.0,0.0,0.0,"(1e-05, 0.0, 0.0, 0.0, 1e-05, 0.0, 0.0, 0.0, 1e-05)",-0.02392578125,0.13398437500000002,9.8095703125,"(0.01, 0.0, 0.0, 0.0, 0.01, 0.0, 0.0, 0.0, 0.01)"
2025/07/11/14:06:04.405591,36,1752242764,405091925,imu_link,0.003250373609509978,-0.007049637511266898,-0.9618462264603198,0.2734804825328516,"(0.001, 0.0, 0.0, 0.0, 0.001, 0.0, 0.0, 0.0, 0.001)",0.0,0.0,0.0,"(1e-05, 0.0, 0.0, 0.0, 1e-05, 0.0, 0.0, 0.0, 1e-05)",-0.02392578125,0.13398437500000002,9.8095703125,"(0.01, 0.0, 0.0, 0.0, 0.01, 0.0, 0.0, 0.0, 0.01)"
2025/07/11/14:06:04.449347,37,1752242764,448882201,imu_link,0.003250373609509978,-0.007049637511266898,-0.9618462264603198,0.2734804825328516,"(0.001, 0.0, 0.0, 0.0, 0.001, 0.0, 0.0, 0.0, 0.001)",0.0,0.0,0.0,"(1e-05, 0.0, 0.0, 0.0, 1e-05, 0.0, 0.0, 0.0, 1e-05)",-0.02392578125,0.13398437500000002,9.8095703125,"(0.01, 0.0, 0.0, 0.0, 0.01, 0.0, 0.0, 0.0, 0.01)"
2025/07/11/14:06:04.455659,38,1752242764,455341280,imu_link,0.003250373609509978,-0.007049637511266898,-0.9618462264603198,0.2734804825328516,"(0.001, 0.0, 0.0, 0.0, 0.001, 0.0, 0.0, 0.0, 0.001)",0.0,0.0,0.0,"(1e-05, 0.0, 0.0, 0.0, 1e-05, 0.0, 0.0, 0.0, 1e-05)",-0.019140625,0.13398437500000002,9.8095703125,"(0.01, 0.0, 0.0, 0.0, 0.01, 0.0, 0.0, 0.0, 0.01)"
2025/07/11/14:06:04.506299,39,1752242764,505773777,imu_link,0.003250373609509978,-0.007049637511266898,-0.9618462264603198,0.2734804825328516,"(0.001, 0.0, 0.0, 0.0, 0.001, 0.0, 0.0, 0.0, 0.001)",0.0,0.0,0.0,"(1e-05, 0.0, 0.0, 0.0, 1e-05, 0.0, 0.0, 0.0, 1e-05)",-0.02392578125,0.13398437500000002,9.8095703125,"(0.01, 0.0, 0.0, 0.0, 0.01, 0.0, 0.0, 0.0, 0.01)"
2025/07/11/14:06:04.549341,40,1752242764,548882513,imu_link,0.003250373609509978,-0.007049637511266898,-0.9618462264603198,0.2734804825328516,"(0.001, 0.0, 0.0, 0.0, 0.001, 0.0, 0.0, 0.0, 0.001)",0.0,0.0,0.0,"(1e-05, 0.0, 0.0, 0.0, 1e-05, 0.0, 0.0, 0.0, 1e-05)",-0.02392578125,0.13398437500000002,9.8095703125,"(0.01, 0.0, 0.0, 0.0, 0.01, 0.0, 0.0, 0.0, 0.01)"
2025/07/11/14:06:04.556222,41,1752242764,555831512,imu_link,0.003250373609509978,-0.007049637511266898,-0.9618462264603198,0.2734804825328516,"(0.001, 0.0, 0.0, 0.0, 0.001, 0.0, 0.0, 0.0, 0.001)",0.0,0.0,0.0,"(1e-05, 0.0, 0.0, 0.0, 1e-05, 0.0, 0.0, 0.0, 1e-05)",-0.02392578125,0.13398437500000002,9.8095703125,"(0.01, 0.0, 0.0, 0.0, 0.01, 0.0, 0.0, 0.0, 0.01)"
2025/07/11/14:06:04.606525,42,1752242764,606105612,imu_link,0.0032964812899626116,-0.007036526849313018,-0.9618462706547037,0.2734801128576665,"(0.001, 0.0, 0.0, 0.0, 0.001, 0.0, 0.0, 0.0, 0.001)",0.0,0.0,0.0,"(1e-05, 0.0, 0.0, 0.0, 1e-05, 0.0, 0.0, 0.0, 1e-05)",-0.02392578125,0.13398437500000002,9.8095703125,"(0.01, 0.0, 0.0, 0.0, 0.01, 0.0, 0.0, 0.0, 0.01)"
2025/07/11/14:06:04.649307,43,1752242764,648879580,imu_link,0.0032964812899626116,-0.007036526849313018,-0.9618462706547037,0.2734801128576665,"(0.001, 0.0, 0.0, 0.0, 0.001, 0.0, 0.0, 0.0, 0.001)",0.0,0.0,0.0,"(1e-05, 0.0, 0.0, 0.0, 1e-05, 0.0, 0.0, 0.0, 1e-05)",-0.02392578125,0.13398437500000002,9.8095703125,"(0.01, 0.0, 0.0, 0.0, 0.01, 0.0, 0.0, 0.0, 0.01)"
2025/07/11/14:06:04.656797,44,1752242764,656371938,imu_link,0.0032964812899626116,-0.007036526849313018,-0.9618462706547037,0.2734801128576665,"(0.001, 0.0, 0.0, 0.0, 0.001, 0.0, 0.0, 0.0, 0.001)",0.0,0.0,0.0,"(1e-05, 0.0, 0.0, 0.0, 1e-05, 0.0, 0.0, 0.0, 1e-05)",-0.02392578125,0.13398437500000002,9.8095703125,"(0.01, 0.0, 0.0, 0.0, 0.01, 0.0, 0.0, 0.0, 0.01)"
2025/07/11/14:06:04.707341,45,1752242764,706918961,imu_link,0.0032964812899626116,-0.007036526849313018,-0.9618462706547037,0.2734801128576665,"(0.001, 0.0, 0.0, 0.0, 0.001, 0.0, 0.0, 0.0, 0.001)",0.0,0.0,0.0,"(1e-05, 0.0, 0.0, 0.0, 1e-05, 0.0, 0.0, 0.0, 1e-05)",-0.02392578125,0.13398437500000002,9.80478515625,"(0.01, 0.0, 0.0, 0.0, 0.01, 0.0, 0.0, 0.0, 0.01)"
2025/07/11/14:06:04.749293,46,1752242764,748847861,imu_link,0.0032964812899626116,-0.007036526849313018,-0.9618462706547037,0.2734801128576665,"(0.001, 0.0, 0.0, 0.0, 0.001, 0.0, 0.0, 0.0, 0.001)",0.0,0.0,0.0,"(1e-05, 0.0, 0.0, 0.0, 1e-05, 0.0, 0.0, 0.0, 1e-05)",-0.02392578125,0.13398437500000002,9.80478515625,"(0.01, 0.0, 0.0, 0.0, 0.01, 0.0, 0.0, 0.0, 0.01)"
2025/07/11/14:06:04.757119,47,1752242764,756772131,imu_link,0.0032964812899626116,-0.007036526849313018,-0.9618462706547037,0.2734801128576665,"(0.001, 0.0, 0.0, 0.0, 0.001, 0.0, 0.0, 0.0, 0.001)",0.0,0.0,0.0,"(1e-05, 0.0, 0.0, 0.0, 1e-05, 0.0, 0.0, 0.0, 1e-05)",-0.02392578125,0.13398437500000002,9.8095703125,"(0.01, 0.0, 0.0, 0.0, 0.01, 0.0, 0.0, 0.0, 0.01)"
2025/07/11/14:06:04.807461,48,1752242764,807004794,imu_link,0.0032964812899626116,-0.007036526849313018,-0.9618462706547037,0.2734801128576665,"(0.001, 0.0, 0.0, 0.0, 0.001, 0.0, 0.0, 0.0, 0.001)",0.0,0.0,0.0,"(1e-05, 0.0, 0.0, 0.0, 1e-05, 0.0, 0.0, 0.0, 1e-05)",-0.02392578125,0.13398437500000002,9.8095703125,"(0.01, 0.0, 0.0, 0.0, 0.01, 0.0, 0.0, 0.0, 0.01)"
2025/07/11/14:06:04.849276,49,1752242764,848871647,imu_link,0.0032964812899626116,-0.007036526849313018,-0.9618462706547037,0.2734801128576665,"(0.001, 0.0, 0.0, 0.0, 0.001, 0.0, 0.0, 0.0, 0.001)",0.0,0.0,0.0,"(1e-05, 0.0, 0.0, 0.0, 1e-05, 0.0, 0.0, 0.0, 1e-05)",-0.02392578125,0.13398437500000002,9.8095703125,"(0.01, 0.0, 0.0, 0.0, 0.01, 0.0, 0.0, 0.0, 0.01)"
2025/07/11/14:06:04.858120,50,1752242764,857686489,imu_link,0.0032964812899626116,-0.007036526849313018,-0.9618462706547037,0.2734801128576665,"(0.001, 0.0, 0.0, 0.0, 0.001, 0.0, 0.0, 0.0, 0.001)",0.0,0.0,0.0,"(1e-05, 0.0, 0.0, 0.0, 1e-05, 0.0, 0.0, 0.0, 1e-05)",-0.02392578125,0.13398437500000002,9.8095703125,"(0.01, 0.0, 0.0, 0.0, 0.01, 0.0, 0.0, 0.0, 0.01)"
2025/07/11/14:06:04.908228,51,1752242764,907744354,imu_link,0.0032964812899626116,-0.007036526849313018,-0.9618462706547037,0.2734801128576665,"(0.001, 0.0, 0.0, 0.0, 0.001, 0.0, 0.0, 0.0, 0.001)",0.0,0.0,0.0,"(1e-05, 0.0, 0.0, 0.0, 1e-05, 0.0, 0.0, 0.0, 1e-05)",-0.02392578125,0.13398437500000002,9.8095703125,"(0.01, 0.0, 0.0, 0.0, 0.01, 0.0, 0.0, 0.0, 0.01)"
2025/07/11/14:06:04.949258,52,1752242764,948851130,imu_link,0.0032964812899626116,-0.007036526849313018,-0.9618462706547037,0.2734801128576665,"(0.001, 0.0, 0.0, 0.0, 0.001, 0.0, 0.0, 0.0, 0.001)",0.0,0.0,0.0,"(1e-05, 0.0, 0.0, 0.0, 1e-05, 0.0, 0.0, 0.0, 1e-05)",-0.02392578125,0.13398437500000002,9.8095703125,"(0.01, 0.0, 0.0, 0.0, 0.01, 0.0, 0.0, 0.0, 0.01)"
2025/07/11/14:06:04.958219,53,1752242764,957777521,imu_link,0.0032964812899626116,-0.007036526849313018,-0.9618462706547037,0.2734801128576665,"(0.001, 0.0, 0.0, 0.0, 0.001, 0.0, 0.0, 0.0, 0.001)",0.0,0.0,0.0,"(1e-05, 0.0, 0.0, 0.0, 1e-05, 0.0, 0.0, 0.0, 1e-05)",-0.019140625,0.13398437500000002,9.8095703125,"(0.01, 0.0, 0.0, 0.0, 0.01, 0.0, 0.0, 0.0, 0.01)"
2025/07/11/14:06:05.008505,54,1752242765,8011757,imu_link,0.0032964812899626116,-0.007036526849313018,-0.9618462706547037,0.2734801128576665,"(0.001, 0.0, 0.0, 0.0, 0.001, 0.0, 0.0, 0.0, 0.001)",0.0,0.0,0.0,"(1e-05, 0.0, 0.0, 0.0, 1e-05, 0.0, 0.0, 0.0, 1e-05)",-0.02392578125,0.13398437500000002,9.8095703125,"(0.01, 0.0, 0.0, 0.0, 0.01, 0.0, 0.0, 0.0, 0.01)"
2025/07/11/14:06:05.049228,55,1752242765,48853978,imu_link,0.0032964812899626116,-0.007036526849313018,-0.9618462706547037,0.2734801128576665,"(0.001, 0.0, 0.0, 0.0, 0.001, 0.0, 0.0, 0.0, 0.001)",0.0,0.0,0.0,"(1e-05, 0.0, 0.0, 0.0, 1e-05, 0.0, 0.0, 0.0, 1e-05)",-0.02392578125,0.13398437500000002,9.8095703125,"(0.01, 0.0, 0.0, 0.0, 0.01, 0.0, 0.0, 0.0, 0.01)"
2025/07/11/14:06:05.058561,56,1752242765,58235905,imu_link,0.0032964812899626116,-0.007036526849313018,-0.9618462706547037,0.2734801128576665,"(0.001, 0.0, 0.0, 0.0, 0.001, 0.0, 0.0, 0.0, 0.001)",0.0,0.0,0.0,"(1e-05, 0.0, 0.0, 0.0, 1e-05, 0.0, 0.0, 0.0, 1e-05)",-0.02392578125,0.13398437500000002,9.8095703125,"(0.01, 0.0, 0.0, 0.0, 0.01, 0.0, 0.0, 0.0, 0.01)"
2025/07/11/14:06:05.109166,57,1752242765,108705724,imu_link,0.0032964812899626116,-0.007036526849313018,-0.9618462706547037,0.2734801128576665,"(0.001, 0.0, 0.0, 0.0, 0.001, 0.0, 0.0, 0.0, 0.001)",0.0,0.0,0.0,"(1e-05, 0.0, 0.0, 0.0, 1e-05, 0.0, 0.0, 0.0, 1e-05)",-0.02392578125,0.13398437500000002,9.8095703125,"(0.01, 0.0, 0.0, 0.0, 0.01, 0.0, 0.0, 0.0, 0.01)"
2025/07/11/14:06:05.149438,58,1752242765,148863570,imu_link,0.0032964812899626116,-0.007036526849313018,-0.9618462706547037,0.2734801128576665,"(0.001, 0.0, 0.0, 0.0, 0.001, 0.0, 0.0, 0.0, 0.001)",0.0,0.0,0.0,"(1e-05, 0.0, 0.0, 0.0, 1e-05, 0.0, 0.0, 0.0, 1e-05)",-0.02392578125,0.13398437500000002,9.8095703125,"(0.01, 0.0, 0.0, 0.0, 0.01, 0.0, 0.0, 0.0, 0.01)"
2025/07/11/14:06:05.159208,59,1752242765,158773859,imu_link,0.0032964812899626116,-0.007036526849313018,-0.9618462706547037,0.2734801128576665,"(0.001, 0.0, 0.0, 0.0, 0.001, 0.0, 0.0, 0.0, 0.001)",0.0,0.0,0.0,"(1e-05, 0.0, 0.0, 0.0, 1e-05, 0.0, 0.0, 0.0, 1e-05)",-0.02392578125,0.13398437500000002,9.80478515625,"(0.01, 0.0, 0.0, 0.0, 0.01, 0.0, 0.0, 0.0, 0.01)"
2025/07/11/14:06:05.209813,60,1752242765,209328758,imu_link,0.0032964812899626116,-0.007036526849313018,-0.9618462706547037,0.2734801128576665,"(0.001, 0.0, 0.0, 0.0, 0.001, 0.0, 0.0, 0.0, 0.001)",0.0,0.0,0.0,"(1e-05, 0.0, 0.0, 0.0, 1e-05, 0.0, 0.0, 0.0, 1e-05)",-0.02392578125,0.13398437500000002,9.8095703125,"(0.01, 0.0, 0.0, 0.0, 0.01, 0.0, 0.0, 0.0, 0.01)"
2025/07/11/14:06:05.249546,61,1752242765,249082495,imu_link,0.0032964812899626116,-0.007036526849313018,-0.9618462706547037,0.2734801128576665,"(0.001, 0.0, 0.0, 0.0, 0.001, 0.0, 0.0, 0.0, 0.001)",0.0,0.0,0.0,"(1e-05, 0.0, 0.0, 0.0, 1e-05, 0.0, 0.0, 0.0, 1e-05)",-0.02392578125,0.13398437500000002,9.8095703125,"(0.01, 0.0, 0.0, 0.0, 0.01, 0.0, 0.0, 0.0, 0.01)"
2025/07/11/14:06:05.259774,62,1752242765,259321742,imu_link,0.0032964812899626116,-0.007036526849313018,-0.9618462706547037,0.2734801128576665,"(0.001, 0.0, 0.0, 0.0, 0.001, 0.0, 0.0, 0.0, 0.001)",0.0,0.0,0.0,"(1e-05, 0.0, 0.0, 0.0, 1e-05, 0.0, 0.0, 0.0, 1e-05)",-0.019140625,0.13398437500000002,9.8095703125,"(0.01, 0.0, 0.0, 0.0, 0.01, 0.0, 0.0, 0.0, 0.01)"
2025/07/11/14:06:05.310107,63,1752242765,309670985,imu_link,0.0032964812899626116,-0.007036526849313018,-0.9618462706547037,0.2734801128576665,"(0.001, 0.0, 0.0, 0.0, 0.001, 0.0, 0.0, 0.0, 0.001)",0.0,0.0,0.0,"(1e-05, 0.0, 0.0, 0.0, 1e-05, 0.0, 0.0, 0.0, 1e-05)",-0.02392578125,0.13398437500000002,9.8095703125,"(0.01, 0.0, 0.0, 0.0, 0.01, 0.0, 0.0, 0.0, 0.01)"
2025/07/11/14:06:05.349527,64,1752242765,349064355,imu_link,0.0032964812899626116,-0.007036526849313018,-0.9618462706547037,0.2734801128576665,"(0.001, 0.0, 0.0, 0.0, 0.001, 0.0, 0.0, 0.0, 0.001)",0.0,0.0,0.0,"(1e-05, 0.0, 0.0, 0.0, 1e-05, 0.0, 0.0, 0.0, 1e-05)",-0.02392578125,0.13398437500000002,9.8095703125,"(0.01, 0.0, 0.0, 0.0, 0.01, 0.0, 0.0, 0.0, 0.01)"
2025/07/11/14:06:05.360247,65,1752242765,359794303,imu_link,0.0032964812899626116,-0.007036526849313018,-0.9618462706547037,0.2734801128576665,"(0.001, 0.0, 0.0, 0.0, 0.001, 0.0, 0.0, 0.0, 0.001)",0.0,0.0,0.0,"(1e-05, 0.0, 0.0, 0.0, 1e-05, 0.0, 0.0, 0.0, 1e-05)",-0.02392578125,0.13398437500000002,9.8095703125,"(0.01, 0.0, 0.0, 0.0, 0.01, 0.0, 0.0, 0.0, 0.01)"
2025/07/11/14:06:05.410795,66,1752242765,410336238,imu_link,0.0032964812899626116,-0.007036526849313018,-0.9618462706547037,0.2734801128576665,"(0.001, 0.0, 0.0, 0.0, 0.001, 0.0, 0.0, 0.0, 0.001)",0.0,0.0,0.0,"(1e-05, 0.0, 0.0, 0.0, 1e-05, 0.0, 0.0, 0.0, 1e-05)",-0.02392578125,0.13398437500000002,9.8095703125,"(0.01, 0.0, 0.0, 0.0, 0.01, 0.0, 0.0, 0.0, 0.01)"
2025/07/11/14:06:05.449422,67,1752242765,448973849,imu_link,0.0032964812899626116,-0.007036526849313018,-0.9618462706547037,0.2734801128576665,"(0.001, 0.0, 0.0, 0.0, 0.001, 0.0, 0.0, 0.0, 0.001)",0.0,0.0,0.0,"(1e-05, 0.0, 0.0, 0.0, 1e-05, 0.0, 0.0, 0.0, 1e-05)",-0.02392578125,0.13398437500000002,9.8095703125,"(0.01, 0.0, 0.0, 0.0, 0.01, 0.0, 0.0, 0.0, 0.01)"
2025/07/11/14:06:05.460800,68,1752242765,460280630,imu_link,0.0032964812899626116,-0.007036526849313018,-0.9618462706547037,0.2734801128576665,"(0.001, 0.0, 0.0, 0.0, 0.001, 0.0, 0.0, 0.0, 0.001)",0.0,0.0,0.0,"(1e-05, 0.0, 0.0, 0.0, 1e-05, 0.0, 0.0, 0.0, 1e-05)",-0.02392578125,0.13398437500000002,9.80478515625,"(0.01, 0.0, 0.0, 0.0, 0.01, 0.0, 0.0, 0.0, 0.01)"
2025/07/11/14:06:05.510983,69,1752242765,510562466,imu_link,0.0032964812899626116,-0.007036526849313018,-0.9618462706547037,0.2734801128576665,"(0.001, 0.0, 0.0, 0.0, 0.001, 0.0, 0.0, 0.0, 0.001)",0.0,0.0,0.0,"(1e-05, 0.0, 0.0, 0.0, 1e-05, 0.0, 0.0, 0.0, 1e-05)",-0.02392578125,0.13398437500000002,9.8095703125,"(0.01, 0.0, 0.0, 0.0, 0.01, 0.0, 0.0, 0.0, 0.01)"
2025/07/11/14:06:05.549563,70,1752242765,549101683,imu_link,0.0032964812899626116,-0.007036526849313018,-0.9618462706547037,0.2734801128576665,"(0.001, 0.0, 0.0, 0.0, 0.001, 0.0, 0.0, 0.0, 0.001)",0.0,0.0,0.0,"(1e-05, 0.0, 0.0, 0.0, 1e-05, 0.0, 0.0, 0.0, 1e-05)",-0.02392578125,0.13398437500000002,9.8095703125,"(0.01, 0.0, 0.0, 0.0, 0.01, 0.0, 0.0, 0.0, 0.01)"
2025/07/11/14:06:05.561226,71,1752242765,560746429,imu_link,0.0032964812899626116,-0.007036526849313018,-0.9618462706547037,0.2734801128576665,"(0.001, 0.0, 0.0, 0.0, 0.001, 0.0, 0.0, 0.0, 0.001)",0.0,0.0,0.0,"(1e-05, 0.0, 0.0, 0.0, 1e-05, 0.0, 0.0, 0.0, 1e-05)",-0.02392578125,0.13398437500000002,9.8095703125,"(0.01, 0.0, 0.0, 0.0, 0.01, 0.0, 0.0, 0.0, 0.01)"
2025/07/11/14:06:05.611705,72,1752242765,611233751,imu_link,0.0032964812899626116,-0.007036526849313018,-0.9618462706547037,0.2734801128576665,"(0.001, 0.0, 0.0, 0.0, 0.001, 0.0, 0.0, 0.0, 0.001)",0.0,0.0,0.0,"(1e-05, 0.0, 0.0, 0.0, 1e-05, 0.0, 0.0, 0.0, 1e-05)",-0.02392578125,0.13398437500000002,9.8095703125,"(0.01, 0.0, 0.0, 0.0, 0.01, 0.0, 0.0, 0.0, 0.01)"
2025/07/11/14:06:05.649331,73,1752242765,648890701,imu_link,0.0032964812899626116,-0.007036526849313018,-0.9618462706547037,0.2734801128576665,"(0.001, 0.0, 0.0, 0.0, 0.001, 0.0, 0.0, 0.0, 0.001)",0.0,0.0,0.0,"(1e-05, 0.0, 0.0, 0.0, 1e-05, 0.0, 0.0, 0.0, 1e-05)",-0.02392578125,0.13398437500000002,9.8095703125,"(0.01, 0.0, 0.0, 0.0, 0.01, 0.0, 0.0, 0.0, 0.01)"
2025/07/11/14:06:05.662047,74,1752242765,661599425,imu_link,0.0032964812899626116,-0.007036526849313018,-0.9618462706547037,0.2734801128576665,"(0.001, 0.0, 0.0, 0.0, 0.001, 0.0, 0.0, 0.0, 0.001)",0.0,0.0,0.0,"(1e-05, 0.0, 0.0, 0.0, 1e-05, 0.0, 0.0, 0.0, 1e-05)",-0.02392578125,0.13398437500000002,9.8095703125,"(0.01, 0.0, 0.0, 0.0, 0.01, 0.0, 0.0, 0.0, 0.01)"
2025/07/11/14:06:05.712124,75,1752242765,711642172,imu_link,0.0032964812899626116,-0.007036526849313018,-0.9618462706547037,0.2734801128576665,"(0.001, 0.0, 0.0, 0.0, 0.001, 0.0, 0.0, 0.0, 0.001)",0.0,0.0,0.0,"(1e-05, 0.0, 0.0, 0.0, 1e-05, 0.0, 0.0, 0.0, 1e-05)",-0.02392578125,0.13398437500000002,9.8095703125,"(0.01, 0.0, 0.0, 0.0, 0.01, 0.0, 0.0, 0.0, 0.01)"
2025/07/11/14:06:05.749560,76,1752242765,749072807,imu_link,0.0032964812899626116,-0.007036526849313018,-0.9618462706547037,0.2734801128576665,"(0.001, 0.0, 0.0, 0.0, 0.001, 0.0, 0.0, 0.0, 0.001)",0.0,0.0,0.0,"(1e-05, 0.0, 0.0, 0.0, 1e-05, 0.0, 0.0, 0.0, 1e-05)",-0.02392578125,0.13398437500000002,9.8095703125,"(0.01, 0.0, 0.0, 0.0, 0.01, 0.0, 0.0, 0.0, 0.01)"
2025/07/11/14:06:05.762213,77,1752242765,761739892,imu_link,0.0032964812899626116,-0.007036526849313018,-0.9618462706547037,0.2734801128576665,"(0.001, 0.0, 0.0, 0.0, 0.001, 0.0, 0.0, 0.0, 0.001)",0.0,0.0,0.0,"(1e-05, 0.0, 0.0, 0.0, 1e-05, 0.0, 0.0, 0.0, 1e-05)",-0.02392578125,0.13398437500000002,9.8095703125,"(0.01, 0.0, 0.0, 0.0, 0.01, 0.0, 0.0, 0.0, 0.01)"
2025/07/11/14:06:05.812488,78,1752242765,812025706,imu_link,0.0032964812899626116,-0.007036526849313018,-0.9618462706547037,0.2734801128576665,"(0.001, 0.0, 0.0, 0.0, 0.001, 0.0, 0.0, 0.0, 0.001)",0.0,0.0,0.0,"(1e-05, 0.0, 0.0, 0.0, 1e-05, 0.0, 0.0, 0.0, 1e-05)",-0.019140625,0.13398437500000002,9.80478515625,"(0.01, 0.0, 0.0, 0.0, 0.01, 0.0, 0.0, 0.0, 0.01)"
2025/07/11/14:06:05.849575,79,1752242765,849100373,imu_link,0.0032964812899626116,-0.007036526849313018,-0.9618462706547037,0.2734801128576665,"(0.001, 0.0, 0.0, 0.0, 0.001, 0.0, 0.0, 0.0, 0.001)",0.0,0.0,0.0,"(1e-05, 0.0, 0.0, 0.0, 1e-05, 0.0, 0.0, 0.0, 1e-05)",-0.019140625,0.13398437500000002,9.80478515625,"(0.01, 0.0, 0.0, 0.0, 0.01, 0.0, 0.0, 0.0, 0.01)"
2025/07/11/14:06:05.862825,80,1752242765,862329754,imu_link,0.0032964812899626116,-0.007036526849313018,-0.9618462706547037,0.2734801128576665,"(0.001, 0.0, 0.0, 0.0, 0.001, 0.0, 0.0, 0.0, 0.001)",0.0,0.0,0.0,"(1e-05, 0.0, 0.0, 0.0, 1e-05, 0.0, 0.0, 0.0, 1e-05)",-0.02392578125,0.13876953125000002,9.8095703125,"(0.01, 0.0, 0.0, 0.0, 0.01, 0.0, 0.0, 0.0, 0.01)"
2025/07/11/14:06:05.912958,81,1752242765,912494079,imu_link,0.0032964812899626116,-0.007036526849313018,-0.9618462706547037,0.2734801128576665,"(0.001, 0.0, 0.0, 0.0, 0.001, 0.0, 0.0, 0.0, 0.001)",0.0,0.0,0.0,"(1e-05, 0.0, 0.0, 0.0, 1e-05, 0.0, 0.0, 0.0, 1e-05)",-0.02392578125,0.13398437500000002,9.8,"(0.01, 0.0, 0.0, 0.0, 0.01, 0.0, 0.0, 0.0, 0.01)"
2025/07/11/14:06:05.949409,82,1752242765,948923183,imu_link,0.0032964812899626116,-0.007036526849313018,-0.9618462706547037,0.2734801128576665,"(0.001, 0.0, 0.0, 0.0, 0.001, 0.0, 0.0, 0.0, 0.001)",0.0,0.0,0.0,"(1e-05, 0.0, 0.0, 0.0, 1e-05, 0.0, 0.0, 0.0, 1e-05)",-0.02392578125,0.13398437500000002,9.8,"(0.01, 0.0, 0.0, 0.0, 0.01, 0.0, 0.0, 0.0, 0.01)"
2025/07/11/14:06:05.963197,83,1752242765,962741170,imu_link,0.0032964812899626116,-0.007036526849313018,-0.9618462706547037,0.2734801128576665,"(0.001, 0.0, 0.0, 0.0, 0.001, 0.0, 0.0, 0.0, 0.001)",0.0,0.0,0.0,"(1e-05, 0.0, 0.0, 0.0, 1e-05, 0.0, 0.0, 0.0, 1e-05)",-0.02392578125,0.13398437500000002,9.80478515625,"(0.01, 0.0, 0.0, 0.0, 0.01, 0.0, 0.0, 0.0, 0.01)"
2025/07/11/14:06:06.013428,84,1752242766,12953876,imu_link,0.0032964812899626116,-0.007036526849313018,-0.9618462706547037,0.2734801128576665,"(0.001, 0.0, 0.0, 0.0, 0.001, 0.0, 0.0, 0.0, 0.001)",0.0,0.0,0.0,"(1e-05, 0.0, 0.0, 0.0, 1e-05, 0.0, 0.0, 0.0, 1e-05)",-0.02392578125,0.13398437500000002,9.8095703125,"(0.01, 0.0, 0.0, 0.0, 0.01, 0.0, 0.0, 0.0, 0.01)"
2025/07/11/14:06:06.049608,85,1752242766,49093428,imu_link,0.0032964812899626116,-0.007036526849313018,-0.9618462706547037,0.2734801128576665,"(0.001, 0.0, 0.0, 0.0, 0.001, 0.0, 0.0, 0.0, 0.001)",0.0,0.0,0.0,"(1e-05, 0.0, 0.0, 0.0, 1e-05, 0.0, 0.0, 0.0, 1e-05)",-0.02392578125,0.13398437500000002,9.8095703125,"(0.01, 0.0, 0.0, 0.0, 0.01, 0.0, 0.0, 0.0, 0.01)"
2025/07/11/14:06:06.063661,86,1752242766,63246554,imu_link,0.0032964812899626116,-0.007036526849313018,-0.9618462706547037,0.2734801128576665,"(0.001, 0.0, 0.0, 0.0, 0.001, 0.0, 0.0, 0.0, 0.001)",0.0,0.0,0.0,"(1e-05, 0.0, 0.0, 0.0, 1e-05, 0.0, 0.0, 0.0, 1e-05)",-0.02392578125,0.13398437500000002,9.80478515625,"(0.01, 0.0, 0.0, 0.0, 0.01, 0.0, 0.0, 0.0, 0.01)"
2025/07/11/14:06:06.114189,87,1752242766,113690265,imu_link,0.0032964812899626116,-0.007036526849313018,-0.9618462706547037,0.2734801128576665,"(0.001, 0.0, 0.0, 0.0, 0.001, 0.0, 0.0, 0.0, 0.001)",0.0,0.0,0.0,"(1e-05, 0.0, 0.0, 0.0, 1e-05, 0.0, 0.0, 0.0, 1e-05)",-0.019140625,0.13398437500000002,9.8095703125,"(0.01, 0.0, 0.0, 0.0, 0.01, 0.0, 0.0, 0.0, 0.01)"
2025/07/11/14:06:06.149700,88,1752242766,149192440,imu_link,0.0032964812899626116,-0.007036526849313018,-0.9618462706547037,0.2734801128576665,"(0.001, 0.0, 0.0, 0.0, 0.001, 0.0, 0.0, 0.0, 0.001)",0.0,0.0,0.0,"(1e-05, 0.0, 0.0, 0.0, 1e-05, 0.0, 0.0, 0.0, 1e-05)",-0.019140625,0.13398437500000002,9.8095703125,"(0.01, 0.0, 0.0, 0.0, 0.01, 0.0, 0.0, 0.0, 0.01)"
2025/07/11/14:06:06.164300,89,1752242766,163746048,imu_link,0.0032964812899626116,-0.007036526849313018,-0.9618462706547037,0.2734801128576665,"(0.001, 0.0, 0.0, 0.0, 0.001, 0.0, 0.0, 0.0, 0.001)",0.0,0.0,0.0,"(1e-05, 0.0, 0.0, 0.0, 1e-05, 0.0, 0.0, 0.0, 1e-05)",-0.02392578125,0.13398437500000002,9.8095703125,"(0.01, 0.0, 0.0, 0.0, 0.01, 0.0, 0.0, 0.0, 0.01)"
2025/07/11/14:06:06.214684,90,1752242766,214240625,imu_link,0.0032964812899626116,-0.007036526849313018,-0.9618462706547037,0.2734801128576665,"(0.001, 0.0, 0.0, 0.0, 0.001, 0.0, 0.0, 0.0, 0.001)",0.0,0.0,0.0,"(1e-05, 0.0, 0.0, 0.0, 1e-05, 0.0, 0.0, 0.0, 1e-05)",-0.02392578125,0.13398437500000002,9.8095703125,"(0.01, 0.0, 0.0, 0.0, 0.01, 0.0, 0.0, 0.0, 0.01)"
2025/07/11/14:06:06.249391,91,1752242766,248924483,imu_link,0.0032964812899626116,-0.007036526849313018,-0.9618462706547037,0.2734801128576665,"(0.001, 0.0, 0.0, 0.0, 0.001, 0.0, 0.0, 0.0, 0.001)",0.0,0.0,0.0,"(1e-05, 0.0, 0.0, 0.0, 1e-05, 0.0, 0.0, 0.0, 1e-05)",-0.02392578125,0.13398437500000002,9.8095703125,"(0.01, 0.0, 0.0, 0.0, 0.01, 0.0, 0.0, 0.0, 0.01)"
2025/07/11/14:06:06.264868,92,1752242766,264255110,imu_link,0.0032964812899626116,-0.007036526849313018,-0.9618462706547037,0.2734801128576665,"(0.001, 0.0, 0.0, 0.0, 0.001, 0.0, 0.0, 0.0, 0.001)",0.0,0.0,0.0,"(1e-05, 0.0, 0.0, 0.0, 1e-05, 0.0, 0.0, 0.0, 1e-05)",-0.02392578125,0.13398437500000002,9.8095703125,"(0.01, 0.0, 0.0, 0.0, 0.01, 0.0, 0.0, 0.0, 0.01)"
2025/07/11/14:06:06.315297,93,1752242766,314815230,imu_link,0.0032964812899626116,-0.007036526849313018,-0.9618462706547037,0.2734801128576665,"(0.001, 0.0, 0.0, 0.0, 0.001, 0.0, 0.0, 0.0, 0.001)",0.0,0.0,0.0,"(1e-05, 0.0, 0.0, 0.0, 1e-05, 0.0, 0.0, 0.0, 1e-05)",-0.02392578125,0.13398437500000002,9.80478515625,"(0.01, 0.0, 0.0, 0.0, 0.01, 0.0, 0.0, 0.0, 0.01)"
2025/07/11/14:06:06.349391,94,1752242766,348862232,imu_link,0.0032964812899626116,-0.007036526849313018,-0.9618462706547037,0.2734801128576665,"(0.001, 0.0, 0.0, 0.0, 0.001, 0.0, 0.0, 0.0, 0.001)",0.0,0.0,0.0,"(1e-05, 0.0, 0.0, 0.0, 1e-05, 0.0, 0.0, 0.0, 1e-05)",-0.02392578125,0.13398437500000002,9.80478515625,"(0.01, 0.0, 0.0, 0.0, 0.01, 0.0, 0.0, 0.0, 0.01)"
2025/07/11/14:06:06.365193,95,1752242766,364797735,imu_link,0.0032964812899626116,-0.007036526849313018,-0.9618462706547037,0.2734801128576665,"(0.001, 0.0, 0.0, 0.0, 0.001, 0.0, 0.0, 0.0, 0.001)",0.0,0.0,0.0,"(1e-05, 0.0, 0.0, 0.0, 1e-05, 0.0, 0.0, 0.0, 1e-05)",-0.02392578125,0.13398437500000002,9.8095703125,"(0.01, 0.0, 0.0, 0.0, 0.01, 0.0, 0.0, 0.0, 0.01)"
2025/07/11/14:06:06.415694,96,1752242766,415205568,imu_link,0.0032964812899626116,-0.007036526849313018,-0.9618462706547037,0.2734801128576665,"(0.001, 0.0, 0.0, 0.0, 0.001, 0.0, 0.0, 0.0, 0.001)",0.0,0.0,0.0,"(1e-05, 0.0, 0.0, 0.0, 1e-05, 0.0, 0.0, 0.0, 1e-05)",-0.02392578125,0.13398437500000002,9.814355468750001,"(0.01, 0.0, 0.0, 0.0, 0.01, 0.0, 0.0, 0.0, 0.01)"
2025/07/11/14:06:06.449538,97,1752242766,449063906,imu_link,0.0032964812899626116,-0.007036526849313018,-0.9618462706547037,0.2734801128576665,"(0.001, 0.0, 0.0, 0.0, 0.001, 0.0, 0.0, 0.0, 0.001)",0.0,0.0,0.0,"(1e-05, 0.0, 0.0, 0.0, 1e-05, 0.0, 0.0, 0.0, 1e-05)",-0.02392578125,0.13398437500000002,9.814355468750001,"(0.01, 0.0, 0.0, 0.0, 0.01, 0.0, 0.0, 0.0, 0.01)"
2025/07/11/14:06:06.465752,98,1752242766,465287570,imu_link,0.0032964812899626116,-0.007036526849313018,-0.9618462706547037,0.2734801128576665,"(0.001, 0.0, 0.0, 0.0, 0.001, 0.0, 0.0, 0.0, 0.001)",0.0,0.0,0.0,"(1e-05, 0.0, 0.0, 0.0, 1e-05, 0.0, 0.0, 0.0, 1e-05)",-0.02392578125,0.13398437500000002,9.80478515625,"(0.01, 0.0, 0.0, 0.0, 0.01, 0.0, 0.0, 0.0, 0.01)"
2025/07/11/14:06:06.516190,99,1752242766,515677230,imu_link,0.0032964812899626116,-0.007036526849313018,-0.9618462706547037,0.2734801128576665,"(0.001, 0.0, 0.0, 0.0, 0.001, 0.0, 0.0, 0.0, 0.001)",0.0,0.0,0.0,"(1e-05, 0.0, 0.0, 0.0, 1e-05, 0.0, 0.0, 0.0, 1e-05)",-0.02392578125,0.13398437500000002,9.8095703125,"(0.01, 0.0, 0.0, 0.0, 0.01, 0.0, 0.0, 0.0, 0.01)"
2025/07/11/14:06:06.549625,100,1752242766,549141958,imu_link,0.0032964812899626116,-0.007036526849313018,-0.9618462706547037,0.2734801128576665,"(0.001, 0.0, 0.0, 0.0, 0.001, 0.0, 0.0, 0.0, 0.001)",0.0,0.0,0.0,"(1e-05, 0.0, 0.0, 0.0, 1e-05, 0.0, 0.0, 0.0, 1e-05)",-0.02392578125,0.13398437500000002,9.8095703125,"(0.01, 0.0, 0.0, 0.0, 0.01, 0.0, 0.0, 0.0, 0.01)"
2025/07/11/14:06:06.566102,101,1752242766,565656709,imu_link,0.0032964812899626116,-0.007036526849313018,-0.9618462706547037,0.2734801128576665,"(0.001, 0.0, 0.0, 0.0, 0.001, 0.0, 0.0, 0.0, 0.001)",0.0,0.0,0.0,"(1e-05, 0.0, 0.0, 0.0, 1e-05, 0.0, 0.0, 0.0, 1e-05)",-0.02392578125,0.13398437500000002,9.8095703125,"(0.01, 0.0, 0.0, 0.0, 0.01, 0.0, 0.0, 0.0, 0.01)"
2025/07/11/14:06:06.616722,102,1752242766,616237037,imu_link,0.0032964812899626116,-0.007036526849313018,-0.9618462706547037,0.2734801128576665,"(0.001, 0.0, 0.0, 0.0, 0.001, 0.0, 0.0, 0.0, 0.001)",0.0,0.0,0.0,"(1e-05, 0.0, 0.0, 0.0, 1e-05, 0.0, 0.0, 0.0, 1e-05)",-0.02392578125,0.13398437500000002,9.8095703125,"(0.01, 0.0, 0.0, 0.0, 0.01, 0.0, 0.0, 0.0, 0.01)"
2025/07/11/14:06:06.649555,103,1752242766,649062936,imu_link,0.0032964812899626116,-0.007036526849313018,-0.9618462706547037,0.2734801128576665,"(0.001, 0.0, 0.0, 0.0, 0.001, 0.0, 0.0, 0.0, 0.001)",0.0,0.0,0.0,"(1e-05, 0.0, 0.0, 0.0, 1e-05, 0.0, 0.0, 0.0, 1e-05)",-0.02392578125,0.13398437500000002,9.8095703125,"(0.01, 0.0, 0.0, 0.0, 0.01, 0.0, 0.0, 0.0, 0.01)"
2025/07/11/14:06:06.666693,104,1752242766,666208310,imu_link,0.0032964812899626116,-0.007036526849313018,-0.9618462706547037,0.2734801128576665,"(0.001, 0.0, 0.0, 0.0, 0.001, 0.0, 0.0, 0.0, 0.001)",0.0,0.0,0.0,"(1e-05, 0.0, 0.0, 0.0, 1e-05, 0.0, 0.0, 0.0, 1e-05)",-0.02392578125,0.13398437500000002,9.819140625000001,"(0.01, 0.0, 0.0, 0.0, 0.01, 0.0, 0.0, 0.0, 0.01)"
2025/07/11/14:06:06.716986,105,1752242766,716536124,imu_link,0.0032964812899626116,-0.007036526849313018,-0.9618462706547037,0.2734801128576665,"(0.001, 0.0, 0.0, 0.0, 0.001, 0.0, 0.0, 0.0, 0.001)",0.0,0.0,0.0,"(1e-05, 0.0, 0.0, 0.0, 1e-05, 0.0, 0.0, 0.0, 1e-05)",-0.019140625,0.13398437500000002,9.8,"(0.01, 0.0, 0.0, 0.0, 0.01, 0.0, 0.0, 0.0, 0.01)"
2025/07/11/14:06:06.749284,106,1752242766,748875439,imu_link,0.0032964812899626116,-0.007036526849313018,-0.9618462706547037,0.2734801128576665,"(0.001, 0.0, 0.0, 0.0, 0.001, 0.0, 0.0, 0.0, 0.001)",0.0,0.0,0.0,"(1e-05, 0.0, 0.0, 0.0, 1e-05, 0.0, 0.0, 0.0, 1e-05)",-0.019140625,0.13398437500000002,9.8,"(0.01, 0.0, 0.0, 0.0, 0.01, 0.0, 0.0, 0.0, 0.01)"
2025/07/11/14:06:06.767150,107,1752242766,766664002,imu_link,0.0032964812899626116,-0.007036526849313018,-0.9618462706547037,0.2734801128576665,"(0.001, 0.0, 0.0, 0.0, 0.001, 0.0, 0.0, 0.0, 0.001)",0.0,0.0,0.0,"(1e-05, 0.0, 0.0, 0.0, 1e-05, 0.0, 0.0, 0.0, 1e-05)",-0.033496093750000004,0.13876953125000002,9.80478515625,"(0.01, 0.0, 0.0, 0.0, 0.01, 0.0, 0.0, 0.0, 0.01)"
2025/07/11/14:06:06.817323,108,1752242766,816877641,imu_link,0.0032964812899626116,-0.007036526849313018,-0.9618462706547037,0.2734801128576665,"(0.001, 0.0, 0.0, 0.0, 0.001, 0.0, 0.0, 0.0, 0.001)",0.0,0.0,0.0,"(1e-05, 0.0, 0.0, 0.0, 1e-05, 0.0, 0.0, 0.0, 1e-05)",-0.028710937500000002,0.12919921875,9.8095703125,"(0.01, 0.0, 0.0, 0.0, 0.01, 0.0, 0.0, 0.0, 0.01)"
2025/07/11/14:06:06.849531,109,1752242766,849063187,imu_link,0.0032964812899626116,-0.007036526849313018,-0.9618462706547037,0.2734801128576665,"(0.001, 0.0, 0.0, 0.0, 0.001, 0.0, 0.0, 0.0, 0.001)",0.0,0.0,0.0,"(1e-05, 0.0, 0.0, 0.0, 1e-05, 0.0, 0.0, 0.0, 1e-05)",-0.028710937500000002,0.12919921875,9.8095703125,"(0.01, 0.0, 0.0, 0.0, 0.01, 0.0, 0.0, 0.0, 0.01)"
2025/07/11/14:06:06.867648,110,1752242766,867168855,imu_link,0.0032964812899626116,-0.007036526849313018,-0.9618462706547037,0.2734801128576665,"(0.001, 0.0, 0.0, 0.0, 0.001, 0.0, 0.0, 0.0, 0.001)",0.0,0.0,0.0,"(1e-05, 0.0, 0.0, 0.0, 1e-05, 0.0, 0.0, 0.0, 1e-05)",-0.02392578125,0.13398437500000002,9.8,"(0.01, 0.0, 0.0, 0.0, 0.01, 0.0, 0.0, 0.0, 0.01)"
2025/07/11/14:06:06.917775,111,1752242766,917322301,imu_link,0.0032964812899626116,-0.007036526849313018,-0.9618462706547037,0.2734801128576665,"(0.001, 0.0, 0.0, 0.0, 0.001, 0.0, 0.0, 0.0, 0.001)",0.0,0.0,0.0,"(1e-05, 0.0, 0.0, 0.0, 1e-05, 0.0, 0.0, 0.0, 1e-05)",-0.02392578125,0.13876953125000002,9.8095703125,"(0.01, 0.0, 0.0, 0.0, 0.01, 0.0, 0.0, 0.0, 0.01)"
2025/07/11/14:06:06.949367,112,1752242766,948889677,imu_link,0.0032964812899626116,-0.007036526849313018,-0.9618462706547037,0.2734801128576665,"(0.001, 0.0, 0.0, 0.0, 0.001, 0.0, 0.0, 0.0, 0.001)",0.0,0.0,0.0,"(1e-05, 0.0, 0.0, 0.0, 1e-05, 0.0, 0.0, 0.0, 1e-05)",-0.02392578125,0.13876953125000002,9.8095703125,"(0.01, 0.0, 0.0, 0.0, 0.01, 0.0, 0.0, 0.0, 0.01)"
2025/07/11/14:06:06.968046,113,1752242766,967576787,imu_link,0.0032964812899626116,-0.007036526849313018,-0.9618462706547037,0.2734801128576665,"(0.001, 0.0, 0.0, 0.0, 0.001, 0.0, 0.0, 0.0, 0.001)",0.0,0.0,0.0,"(1e-05, 0.0, 0.0, 0.0, 1e-05, 0.0, 0.0, 0.0, 1e-05)",-0.02392578125,0.13398437500000002,9.80478515625,"(0.01, 0.0, 0.0, 0.0, 0.01, 0.0, 0.0, 0.0, 0.01)"
2025/07/11/14:06:07.018469,114,1752242767,18011872,imu_link,0.0032964812899626116,-0.007036526849313018,-0.9618462706547037,0.2734801128576665,"(0.001, 0.0, 0.0, 0.0, 0.001, 0.0, 0.0, 0.0, 0.001)",0.0,0.0,0.0,"(1e-05, 0.0, 0.0, 0.0, 1e-05, 0.0, 0.0, 0.0, 1e-05)",-0.02392578125,0.13398437500000002,9.8095703125,"(0.01, 0.0, 0.0, 0.0, 0.01, 0.0, 0.0, 0.0, 0.01)"
2025/07/11/14:06:07.049688,115,1752242767,49095310,imu_link,0.0032964812899626116,-0.007036526849313018,-0.9618462706547037,0.2734801128576665,"(0.001, 0.0, 0.0, 0.0, 0.001, 0.0, 0.0, 0.0, 0.001)",0.0,0.0,0.0,"(1e-05, 0.0, 0.0, 0.0, 1e-05, 0.0, 0.0, 0.0, 1e-05)",-0.02392578125,0.13398437500000002,9.8095703125,"(0.01, 0.0, 0.0, 0.0, 0.01, 0.0, 0.0, 0.0, 0.01)"
2025/07/11/14:06:07.068597,116,1752242767,68162383,imu_link,0.0032964812899626116,-0.007036526849313018,-0.9618462706547037,0.2734801128576665,"(0.001, 0.0, 0.0, 0.0, 0.001, 0.0, 0.0, 0.0, 0.001)",0.0,0.0,0.0,"(1e-05, 0.0, 0.0, 0.0, 1e-05, 0.0, 0.0, 0.0, 1e-05)",-0.02392578125,0.13398437500000002,9.8095703125,"(0.01, 0.0, 0.0, 0.0, 0.01, 0.0, 0.0, 0.0, 0.01)"
2025/07/11/14:06:07.118957,117,1752242767,118504685,imu_link,0.0032964812899626116,-0.007036526849313018,-0.9618462706547037,0.2734801128576665,"(0.001, 0.0, 0.0, 0.0, 0.001, 0.0, 0.0, 0.0, 0.001)",0.0,0.0,0.0,"(1e-05, 0.0, 0.0, 0.0, 1e-05, 0.0, 0.0, 0.0, 1e-05)",-0.02392578125,0.13876953125000002,9.8095703125,"(0.01, 0.0, 0.0, 0.0, 0.01, 0.0, 0.0, 0.0, 0.01)"
2025/07/11/14:06:07.149678,118,1752242767,149087192,imu_link,0.0032964812899626116,-0.007036526849313018,-0.9618462706547037,0.2734801128576665,"(0.001, 0.0, 0.0, 0.0, 0.001, 0.0, 0.0, 0.0, 0.001)",0.0,0.0,0.0,"(1e-05, 0.0, 0.0, 0.0, 1e-05, 0.0, 0.0, 0.0, 1e-05)",-0.02392578125,0.13876953125000002,9.8095703125,"(0.01, 0.0, 0.0, 0.0, 0.01, 0.0, 0.0, 0.0, 0.01)"
2025/07/11/14:06:07.169146,119,1752242767,168621313,imu_link,0.0032964812899626116,-0.007036526849313018,-0.9618462706547037,0.2734801128576665,"(0.001, 0.0, 0.0, 0.0, 0.001, 0.0, 0.0, 0.0, 0.001)",0.0,0.0,0.0,"(1e-05, 0.0, 0.0, 0.0, 1e-05, 0.0, 0.0, 0.0, 1e-05)",-0.019140625,0.13398437500000002,9.8095703125,"(0.01, 0.0, 0.0, 0.0, 0.01, 0.0, 0.0, 0.0, 0.01)"
2025/07/11/14:06:07.219274,120,1752242767,218852496,imu_link,0.0032964812899626116,-0.007036526849313018,-0.9618462706547037,0.2734801128576665,"(0.001, 0.0, 0.0, 0.0, 0.001, 0.0, 0.0, 0.0, 0.001)",0.0,0.0,0.0,"(1e-05, 0.0, 0.0, 0.0, 1e-05, 0.0, 0.0, 0.0, 1e-05)",-0.02392578125,0.13398437500000002,9.8095703125,"(0.01, 0.0, 0.0, 0.0, 0.01, 0.0, 0.0, 0.0, 0.01)"
2025/07/11/14:06:07.249352,121,1752242767,248877116,imu_link,0.0032964812899626116,-0.007036526849313018,-0.9618462706547037,0.2734801128576665,"(0.001, 0.0, 0.0, 0.0, 0.001, 0.0, 0.0, 0.0, 0.001)",0.0,0.0,0.0,"(1e-05, 0.0, 0.0, 0.0, 1e-05, 0.0, 0.0, 0.0, 1e-05)",-0.02392578125,0.13398437500000002,9.8095703125,"(0.01, 0.0, 0.0, 0.0, 0.01, 0.0, 0.0, 0.0, 0.01)"
2025/07/11/14:06:07.269493,122,1752242767,269073109,imu_link,0.0032964812899626116,-0.007036526849313018,-0.9618462706547037,0.2734801128576665,"(0.001, 0.0, 0.0, 0.0, 0.001, 0.0, 0.0, 0.0, 0.001)",0.0,0.0,0.0,"(1e-05, 0.0, 0.0, 0.0, 1e-05, 0.0, 0.0, 0.0, 1e-05)",-0.02392578125,0.13398437500000002,9.80478515625,"(0.01, 0.0, 0.0, 0.0, 0.01, 0.0, 0.0, 0.0, 0.01)"
2025/07/11/14:06:07.320073,123,1752242767,319615517,imu_link,0.0032964812899626116,-0.007036526849313018,-0.9618462706547037,0.2734801128576665,"(0.001, 0.0, 0.0, 0.0, 0.001, 0.0, 0.0, 0.0, 0.001)",0.0,0.0,0.0,"(1e-05, 0.0, 0.0, 0.0, 1e-05, 0.0, 0.0, 0.0, 1e-05)",-0.019140625,0.13398437500000002,9.80478515625,"(0.01, 0.0, 0.0, 0.0, 0.01, 0.0, 0.0, 0.0, 0.01)"
2025/07/11/14:06:07.349667,124,1752242767,349071498,imu_link,0.0032964812899626116,-0.007036526849313018,-0.9618462706547037,0.2734801128576665,"(0.001, 0.0, 0.0, 0.0, 0.001, 0.0, 0.0, 0.0, 0.001)",0.0,0.0,0.0,"(1e-05, 0.0, 0.0, 0.0, 1e-05, 0.0, 0.0, 0.0, 1e-05)",-0.019140625,0.13398437500000002,9.80478515625,"(0.01, 0.0, 0.0, 0.0, 0.01, 0.0, 0.0, 0.0, 0.01)"
2025/07/11/14:06:07.370072,125,1752242767,369597091,imu_link,0.0032964812899626116,-0.007036526849313018,-0.9618462706547037,0.2734801128576665,"(0.001, 0.0, 0.0, 0.0, 0.001, 0.0, 0.0, 0.0, 0.001)",0.0,0.0,0.0,"(1e-05, 0.0, 0.0, 0.0, 1e-05, 0.0, 0.0, 0.0, 1e-05)",-0.02392578125,0.13398437500000002,9.8095703125,"(0.01, 0.0, 0.0, 0.0, 0.01, 0.0, 0.0, 0.0, 0.01)"
2025/07/11/14:06:07.420215,126,1752242767,419816952,imu_link,0.0032964812899626116,-0.007036526849313018,-0.9618462706547037,0.2734801128576665,"(0.001, 0.0, 0.0, 0.0, 0.001, 0.0, 0.0, 0.0, 0.001)",0.0,0.0,0.0,"(1e-05, 0.0, 0.0, 0.0, 1e-05, 0.0, 0.0, 0.0, 1e-05)",-0.02392578125,0.13398437500000002,9.80478515625,"(0.01, 0.0, 0.0, 0.0, 0.01, 0.0, 0.0, 0.0, 0.01)"
2025/07/11/14:06:07.449550,127,1752242767,449093337,imu_link,0.0032964812899626116,-0.007036526849313018,-0.9618462706547037,0.2734801128576665,"(0.001, 0.0, 0.0, 0.0, 0.001, 0.0, 0.0, 0.0, 0.001)",0.0,0.0,0.0,"(1e-05, 0.0, 0.0, 0.0, 1e-05, 0.0, 0.0, 0.0, 1e-05)",-0.02392578125,0.13398437500000002,9.80478515625,"(0.01, 0.0, 0.0, 0.0, 0.01, 0.0, 0.0, 0.0, 0.01)"
2025/07/11/14:06:07.470616,128,1752242767,470123256,imu_link,0.0032964812899626116,-0.007036526849313018,-0.9618462706547037,0.2734801128576665,"(0.001, 0.0, 0.0, 0.0, 0.001, 0.0, 0.0, 0.0, 0.001)",0.0,0.0,0.0,"(1e-05, 0.0, 0.0, 0.0, 1e-05, 0.0, 0.0, 0.0, 1e-05)",-0.02392578125,0.13876953125000002,9.8095703125,"(0.01, 0.0, 0.0, 0.0, 0.01, 0.0, 0.0, 0.0, 0.01)"
2025/07/11/14:06:07.521010,129,1752242767,520512877,imu_link,0.0032964812899626116,-0.007036526849313018,-0.9618462706547037,0.2734801128576665,"(0.001, 0.0, 0.0, 0.0, 0.001, 0.0, 0.0, 0.0, 0.001)",0.0,0.0,0.0,"(1e-05, 0.0, 0.0, 0.0, 1e-05, 0.0, 0.0, 0.0, 1e-05)",-0.02392578125,0.13398437500000002,9.80478515625,"(0.01, 0.0, 0.0, 0.0, 0.01, 0.0, 0.0, 0.0, 0.01)"
2025/07/11/14:06:07.549688,130,1752242767,549073187,imu_link,0.0032964812899626116,-0.007036526849313018,-0.9618462706547037,0.2734801128576665,"(0.001, 0.0, 0.0, 0.0, 0.001, 0.0, 0.0, 0.0, 0.001)",0.0,0.0,0.0,"(1e-05, 0.0, 0.0, 0.0, 1e-05, 0.0, 0.0, 0.0, 1e-05)",-0.02392578125,0.13398437500000002,9.80478515625,"(0.01, 0.0, 0.0, 0.0, 0.01, 0.0, 0.0, 0.0, 0.01)"
2025/07/11/14:06:07.570976,131,1752242767,570541800,imu_link,0.0032964812899626116,-0.007036526849313018,-0.9618462706547037,0.2734801128576665,"(0.001, 0.0, 0.0, 0.0, 0.001, 0.0, 0.0, 0.0, 0.001)",0.0,0.0,0.0,"(1e-05, 0.0, 0.0, 0.0, 1e-05, 0.0, 0.0, 0.0, 1e-05)",-0.02392578125,0.13398437500000002,9.8095703125,"(0.01, 0.0, 0.0, 0.0, 0.01, 0.0, 0.0, 0.0, 0.01)"
2025/07/11/14:06:07.621538,132,1752242767,621025678,imu_link,0.0032964812899626116,-0.007036526849313018,-0.9618462706547037,0.2734801128576665,"(0.001, 0.0, 0.0, 0.0, 0.001, 0.0, 0.0, 0.0, 0.001)",0.0,0.0,0.0,"(1e-05, 0.0, 0.0, 0.0, 1e-05, 0.0, 0.0, 0.0, 1e-05)",-0.02392578125,0.13398437500000002,9.80478515625,"(0.01, 0.0, 0.0, 0.0, 0.01, 0.0, 0.0, 0.0, 0.01)"
2025/07/11/14:06:07.649473,133,1752242767,648925277,imu_link,0.0032964812899626116,-0.007036526849313018,-0.9618462706547037,0.2734801128576665,"(0.001, 0.0, 0.0, 0.0, 0.001, 0.0, 0.0, 0.0, 0.001)",0.0,0.0,0.0,"(1e-05, 0.0, 0.0, 0.0, 1e-05, 0.0, 0.0, 0.0, 1e-05)",-0.02392578125,0.13398437500000002,9.80478515625,"(0.01, 0.0, 0.0, 0.0, 0.01, 0.0, 0.0, 0.0, 0.01)"
2025/07/11/14:06:07.671506,134,1752242767,671070621,imu_link,0.0032964812899626116,-0.007036526849313018,-0.9618462706547037,0.2734801128576665,"(0.001, 0.0, 0.0, 0.0, 0.001, 0.0, 0.0, 0.0, 0.001)",0.0,0.0,0.0,"(1e-05, 0.0, 0.0, 0.0, 1e-05, 0.0, 0.0, 0.0, 1e-05)",-0.02392578125,0.13398437500000002,9.8095703125,"(0.01, 0.0, 0.0, 0.0, 0.01, 0.0, 0.0, 0.0, 0.01)"
2025/07/11/14:06:07.721923,135,1752242767,721504505,imu_link,0.0032964812899626116,-0.007036526849313018,-0.9618462706547037,0.2734801128576665,"(0.001, 0.0, 0.0, 0.0, 0.001, 0.0, 0.0, 0.0, 0.001)",0.0,0.0,0.0,"(1e-05, 0.0, 0.0, 0.0, 1e-05, 0.0, 0.0, 0.0, 1e-05)",-0.02392578125,0.13398437500000002,9.80478515625,"(0.01, 0.0, 0.0, 0.0, 0.01, 0.0, 0.0, 0.0, 0.01)"
2025/07/11/14:06:07.749287,136,1752242767,748852287,imu_link,0.0032964812899626116,-0.007036526849313018,-0.9618462706547037,0.2734801128576665,"(0.001, 0.0, 0.0, 0.0, 0.001, 0.0, 0.0, 0.0, 0.001)",0.0,0.0,0.0,"(1e-05, 0.0, 0.0, 0.0, 1e-05, 0.0, 0.0, 0.0, 1e-05)",-0.02392578125,0.13398437500000002,9.80478515625,"(0.01, 0.0, 0.0, 0.0, 0.01, 0.0, 0.0, 0.0, 0.01)"
2025/07/11/14:06:07.771988,137,1752242767,771557042,imu_link,0.0032964812899626116,-0.007036526849313018,-0.9618462706547037,0.2734801128576665,"(0.001, 0.0, 0.0, 0.0, 0.001, 0.0, 0.0, 0.0, 0.001)",0.0,0.0,0.0,"(1e-05, 0.0, 0.0, 0.0, 1e-05, 0.0, 0.0, 0.0, 1e-05)",-0.02392578125,0.13398437500000002,9.80478515625,"(0.01, 0.0, 0.0, 0.0, 0.01, 0.0, 0.0, 0.0, 0.01)"
2025/07/11/14:06:07.822249,138,1752242767,821805477,imu_link,0.0032964812899626116,-0.007036526849313018,-0.9618462706547037,0.2734801128576665,"(0.001, 0.0, 0.0, 0.0, 0.001, 0.0, 0.0, 0.0, 0.001)",0.0,0.0,0.0,"(1e-05, 0.0, 0.0, 0.0, 1e-05, 0.0, 0.0, 0.0, 1e-05)",-0.02392578125,0.13398437500000002,9.8095703125,"(0.01, 0.0, 0.0, 0.0, 0.01, 0.0, 0.0, 0.0, 0.01)"
2025/07/11/14:06:07.849665,139,1752242767,849080113,imu_link,0.0032964812899626116,-0.007036526849313018,-0.9618462706547037,0.2734801128576665,"(0.001, 0.0, 0.0, 0.0, 0.001, 0.0, 0.0, 0.0, 0.001)",0.0,0.0,0.0,"(1e-05, 0.0, 0.0, 0.0, 1e-05, 0.0, 0.0, 0.0, 1e-05)",-0.02392578125,0.13398437500000002,9.8095703125,"(0.01, 0.0, 0.0, 0.0, 0.01, 0.0, 0.0, 0.0, 0.01)"
2025/07/11/14:06:07.872491,140,1752242767,872116460,imu_link,0.0032964812899626116,-0.007036526849313018,-0.9618462706547037,0.2734801128576665,"(0.001, 0.0, 0.0, 0.0, 0.001, 0.0, 0.0, 0.0, 0.001)",0.0,0.0,0.0,"(1e-05, 0.0, 0.0, 0.0, 1e-05, 0.0, 0.0, 0.0, 1e-05)",-0.02392578125,0.13398437500000002,9.80478515625,"(0.01, 0.0, 0.0, 0.0, 0.01, 0.0, 0.0, 0.0, 0.01)"
2025/07/11/14:06:07.922965,141,1752242767,922509317,imu_link,0.0032964812899626116,-0.007036526849313018,-0.9618462706547037,0.2734801128576665,"(0.001, 0.0, 0.0, 0.0, 0.001, 0.0, 0.0, 0.0, 0.001)",0.0,0.0,0.0,"(1e-05, 0.0, 0.0, 0.0, 1e-05, 0.0, 0.0, 0.0, 1e-05)",-0.02392578125,0.13398437500000002,9.8095703125,"(0.01, 0.0, 0.0, 0.0, 0.01, 0.0, 0.0, 0.0, 0.01)"
2025/07/11/14:06:07.949651,142,1752242767,949065674,imu_link,0.0032964812899626116,-0.007036526849313018,-0.9618462706547037,0.2734801128576665,"(0.001, 0.0, 0.0, 0.0, 0.001, 0.0, 0.0, 0.0, 0.001)",0.0,0.0,0.0,"(1e-05, 0.0, 0.0, 0.0, 1e-05, 0.0, 0.0, 0.0, 1e-05)",-0.02392578125,0.13398437500000002,9.8095703125,"(0.01, 0.0, 0.0, 0.0, 0.01, 0.0, 0.0, 0.0, 0.01)"
2025/07/11/14:06:07.972989,143,1752242767,972550543,imu_link,0.0032964812899626116,-0.007036526849313018,-0.9618462706547037,0.2734801128576665,"(0.001, 0.0, 0.0, 0.0, 0.001, 0.0, 0.0, 0.0, 0.001)",0.0,0.0,0.0,"(1e-05, 0.0, 0.0, 0.0, 1e-05, 0.0, 0.0, 0.0, 1e-05)",-0.02392578125,0.13398437500000002,9.8095703125,"(0.01, 0.0, 0.0, 0.0, 0.01, 0.0, 0.0, 0.0, 0.01)"
2025/07/11/14:06:08.023243,144,1752242768,22806784,imu_link,0.0032964812899626116,-0.007036526849313018,-0.9618462706547037,0.2734801128576665,"(0.001, 0.0, 0.0, 0.0, 0.001, 0.0, 0.0, 0.0, 0.001)",0.0,0.0,0.0,"(1e-05, 0.0, 0.0, 0.0, 1e-05, 0.0, 0.0, 0.0, 1e-05)",-0.02392578125,0.13398437500000002,9.80478515625,"(0.01, 0.0, 0.0, 0.0, 0.01, 0.0, 0.0, 0.0, 0.01)"
2025/07/11/14:06:08.049681,145,1752242768,49063960,imu_link,0.0032964812899626116,-0.007036526849313018,-0.9618462706547037,0.2734801128576665,"(0.001, 0.0, 0.0, 0.0, 0.001, 0.0, 0.0, 0.0, 0.001)",0.0,0.0,0.0,"(1e-05, 0.0, 0.0, 0.0, 1e-05, 0.0, 0.0, 0.0, 1e-05)",-0.02392578125,0.13398437500000002,9.80478515625,"(0.01, 0.0, 0.0, 0.0, 0.01, 0.0, 0.0, 0.0, 0.01)"
2025/07/11/14:06:08.073476,146,1752242768,73077372,imu_link,0.0032964812899626116,-0.007036526849313018,-0.9618462706547037,0.2734801128576665,"(0.001, 0.0, 0.0, 0.0, 0.001, 0.0, 0.0, 0.0, 0.001)",0.0,0.0,0.0,"(1e-05, 0.0, 0.0, 0.0, 1e-05, 0.0, 0.0, 0.0, 1e-05)",-0.02392578125,0.13398437500000002,9.8095703125,"(0.01, 0.0, 0.0, 0.0, 0.01, 0.0, 0.0, 0.0, 0.01)"
2025/07/11/14:06:08.124037,147,1752242768,123502801,imu_link,0.0032964812899626116,-0.007036526849313018,-0.9618462706547037,0.2734801128576665,"(0.001, 0.0, 0.0, 0.0, 0.001, 0.0, 0.0, 0.0, 0.001)",0.0,0.0,0.0,"(1e-05, 0.0, 0.0, 0.0, 1e-05, 0.0, 0.0, 0.0, 1e-05)",-0.02392578125,0.13398437500000002,9.8095703125,"(0.01, 0.0, 0.0, 0.0, 0.01, 0.0, 0.0, 0.0, 0.01)"
2025/07/11/14:06:08.149667,148,1752242768,149049343,imu_link,0.0032964812899626116,-0.007036526849313018,-0.9618462706547037,0.2734801128576665,"(0.001, 0.0, 0.0, 0.0, 0.001, 0.0, 0.0, 0.0, 0.001)",0.0,0.0,0.0,"(1e-05, 0.0, 0.0, 0.0, 1e-05, 0.0, 0.0, 0.0, 1e-05)",-0.02392578125,0.13398437500000002,9.8095703125,"(0.01, 0.0, 0.0, 0.0, 0.01, 0.0, 0.0, 0.0, 0.01)"
2025/07/11/14:06:08.173846,149,1752242768,173477675,imu_link,0.0032964812899626116,-0.007036526849313018,-0.9618462706547037,0.2734801128576665,"(0.001, 0.0, 0.0, 0.0, 0.001, 0.0, 0.0, 0.0, 0.001)",0.0,0.0,0.0,"(1e-05, 0.0, 0.0, 0.0, 1e-05, 0.0, 0.0, 0.0, 1e-05)",-0.02392578125,0.13398437500000002,9.80478515625,"(0.01, 0.0, 0.0, 0.0, 0.01, 0.0, 0.0, 0.0, 0.01)"
2025/07/11/14:06:08.224512,150,1752242768,223984686,imu_link,0.0032964812899626116,-0.007036526849313018,-0.9618462706547037,0.2734801128576665,"(0.001, 0.0, 0.0, 0.0, 0.001, 0.0, 0.0, 0.0, 0.001)",0.0,0.0,0.0,"(1e-05, 0.0, 0.0, 0.0, 1e-05, 0.0, 0.0, 0.0, 1e-05)",-0.02392578125,0.13398437500000002,9.80478515625,"(0.01, 0.0, 0.0, 0.0, 0.01, 0.0, 0.0, 0.0, 0.01)"
2025/07/11/14:06:08.249353,151,1752242768,248867210,imu_link,0.0032964812899626116,-0.007036526849313018,-0.9618462706547037,0.2734801128576665,"(0.001, 0.0, 0.0, 0.0, 0.001, 0.0, 0.0, 0.0, 0.001)",0.0,0.0,0.0,"(1e-05, 0.0, 0.0, 0.0, 1e-05, 0.0, 0.0, 0.0, 1e-05)",-0.02392578125,0.13398437500000002,9.80478515625,"(0.01, 0.0, 0.0, 0.0, 0.01, 0.0, 0.0, 0.0, 0.01)"
2025/07/11/14:06:08.274663,152,1752242768,274214317,imu_link,0.0032964812899626116,-0.007036526849313018,-0.9618462706547037,0.2734801128576665,"(0.001, 0.0, 0.0, 0.0, 0.001, 0.0, 0.0, 0.0, 0.001)",0.0,0.0,0.0,"(1e-05, 0.0, 0.0, 0.0, 1e-05, 0.0, 0.0, 0.0, 1e-05)",-0.02392578125,0.13398437500000002,9.8095703125,"(0.01, 0.0, 0.0, 0.0, 0.01, 0.0, 0.0, 0.0, 0.01)"
2025/07/11/14:06:08.324832,153,1752242768,324296251,imu_link,0.0032964812899626116,-0.007036526849313018,-0.9618462706547037,0.2734801128576665,"(0.001, 0.0, 0.0, 0.0, 0.001, 0.0, 0.0, 0.0, 0.001)",0.0,0.0,0.0,"(1e-05, 0.0, 0.0, 0.0, 1e-05, 0.0, 0.0, 0.0, 1e-05)",-0.02392578125,0.13398437500000002,9.8095703125,"(0.01, 0.0, 0.0, 0.0, 0.01, 0.0, 0.0, 0.0, 0.01)"
2025/07/11/14:06:08.349642,154,1752242768,349047689,imu_link,0.0032964812899626116,-0.007036526849313018,-0.9618462706547037,0.2734801128576665,"(0.001, 0.0, 0.0, 0.0, 0.001, 0.0, 0.0, 0.0, 0.001)",0.0,0.0,0.0,"(1e-05, 0.0, 0.0, 0.0, 1e-05, 0.0, 0.0, 0.0, 1e-05)",-0.02392578125,0.13398437500000002,9.8095703125,"(0.01, 0.0, 0.0, 0.0, 0.01, 0.0, 0.0, 0.0, 0.01)"
2025/07/11/14:06:08.375045,155,1752242768,374557742,imu_link,0.0032964812899626116,-0.007036526849313018,-0.9618462706547037,0.2734801128576665,"(0.001, 0.0, 0.0, 0.0, 0.001, 0.0, 0.0, 0.0, 0.001)",0.0,0.0,0.0,"(1e-05, 0.0, 0.0, 0.0, 1e-05, 0.0, 0.0, 0.0, 1e-05)",-0.02392578125,0.13398437500000002,9.8095703125,"(0.01, 0.0, 0.0, 0.0, 0.01, 0.0, 0.0, 0.0, 0.01)"
2025/07/11/14:06:08.425591,156,1752242768,425024759,imu_link,0.0032964812899626116,-0.007036526849313018,-0.9618462706547037,0.2734801128576665,"(0.001, 0.0, 0.0, 0.0, 0.001, 0.0, 0.0, 0.0, 0.001)",0.0,0.0,0.0,"(1e-05, 0.0, 0.0, 0.0, 1e-05, 0.0, 0.0, 0.0, 1e-05)",-0.02392578125,0.13398437500000002,9.8095703125,"(0.01, 0.0, 0.0, 0.0, 0.01, 0.0, 0.0, 0.0, 0.01)"
2025/07/11/14:06:08.449678,157,1752242768,449065062,imu_link,0.0032964812899626116,-0.007036526849313018,-0.9618462706547037,0.2734801128576665,"(0.001, 0.0, 0.0, 0.0, 0.001, 0.0, 0.0, 0.0, 0.001)",0.0,0.0,0.0,"(1e-05, 0.0, 0.0, 0.0, 1e-05, 0.0, 0.0, 0.0, 1e-05)",-0.02392578125,0.13398437500000002,9.8095703125,"(0.01, 0.0, 0.0, 0.0, 0.01, 0.0, 0.0, 0.0, 0.01)"
2025/07/11/14:06:08.475743,158,1752242768,475301128,imu_link,0.0032964812899626116,-0.007036526849313018,-0.9618462706547037,0.2734801128576665,"(0.001, 0.0, 0.0, 0.0, 0.001, 0.0, 0.0, 0.0, 0.001)",0.0,0.0,0.0,"(1e-05, 0.0, 0.0, 0.0, 1e-05, 0.0, 0.0, 0.0, 1e-05)",-0.02392578125,0.13398437500000002,9.8095703125,"(0.01, 0.0, 0.0, 0.0, 0.01, 0.0, 0.0, 0.0, 0.01)"
2025/07/11/14:06:08.526128,159,1752242768,525603476,imu_link,0.0032964812899626116,-0.007036526849313018,-0.9618462706547037,0.2734801128576665,"(0.001, 0.0, 0.0, 0.0, 0.001, 0.0, 0.0, 0.0, 0.001)",0.0,0.0,0.0,"(1e-05, 0.0, 0.0, 0.0, 1e-05, 0.0, 0.0, 0.0, 1e-05)",-0.02392578125,0.13876953125000002,9.8095703125,"(0.01, 0.0, 0.0, 0.0, 0.01, 0.0, 0.0, 0.0, 0.01)"
2025/07/11/14:06:08.549655,160,1752242768,549055665,imu_link,0.0032964812899626116,-0.007036526849313018,-0.9618462706547037,0.2734801128576665,"(0.001, 0.0, 0.0, 0.0, 0.001, 0.0, 0.0, 0.0, 0.001)",0.0,0.0,0.0,"(1e-05, 0.0, 0.0, 0.0, 1e-05, 0.0, 0.0, 0.0, 1e-05)",-0.02392578125,0.13876953125000002,9.8095703125,"(0.01, 0.0, 0.0, 0.0, 0.01, 0.0, 0.0, 0.0, 0.01)"
2025/07/11/14:06:08.575834,161,1752242768,575431493,imu_link,0.0032964812899626116,-0.007036526849313018,-0.9618462706547037,0.2734801128576665,"(0.001, 0.0, 0.0, 0.0, 0.001, 0.0, 0.0, 0.0, 0.001)",0.0,0.0,0.0,"(1e-05, 0.0, 0.0, 0.0, 1e-05, 0.0, 0.0, 0.0, 1e-05)",-0.033496093750000004,0.13876953125000002,9.8,"(0.01, 0.0, 0.0, 0.0, 0.01, 0.0, 0.0, 0.0, 0.01)"
2025/07/11/14:06:08.626074,162,1752242768,625730755,imu_link,0.0032964812899626116,-0.007036526849313018,-0.9618462706547037,0.2734801128576665,"(0.001, 0.0, 0.0, 0.0, 0.001, 0.0, 0.0, 0.0, 0.001)",0.0,0.0,0.0,"(1e-05, 0.0, 0.0, 0.0, 1e-05, 0.0, 0.0, 0.0, 1e-05)",-0.014355468750000001,0.12919921875,9.82392578125,"(0.01, 0.0, 0.0, 0.0, 0.01, 0.0, 0.0, 0.0, 0.01)"
2025/07/11/14:06:08.649478,163,1752242768,649066075,imu_link,0.0032964812899626116,-0.007036526849313018,-0.9618462706547037,0.2734801128576665,"(0.001, 0.0, 0.0, 0.0, 0.001, 0.0, 0.0, 0.0, 0.001)",0.0,0.0,0.0,"(1e-05, 0.0, 0.0, 0.0, 1e-05, 0.0, 0.0, 0.0, 1e-05)",-0.014355468750000001,0.12919921875,9.82392578125,"(0.01, 0.0, 0.0, 0.0, 0.01, 0.0, 0.0, 0.0, 0.01)"
2025/07/11/14:06:08.676300,164,1752242768,675961559,imu_link,0.0032964812899626116,-0.007036526849313018,-0.9618462706547037,0.2734801128576665,"(0.001, 0.0, 0.0, 0.0, 0.001, 0.0, 0.0, 0.0, 0.001)",0.0,0.0,0.0,"(1e-05, 0.0, 0.0, 0.0, 1e-05, 0.0, 0.0, 0.0, 1e-05)",-0.02392578125,0.1244140625,9.8095703125,"(0.01, 0.0, 0.0, 0.0, 0.01, 0.0, 0.0, 0.0, 0.01)"
2025/07/11/14:06:08.726722,165,1752242768,726314281,imu_link,0.0032964812899626116,-0.007036526849313018,-0.9618462706547037,0.2734801128576665,"(0.001, 0.0, 0.0, 0.0, 0.001, 0.0, 0.0, 0.0, 0.001)",0.0,0.0,0.0,"(1e-05, 0.0, 0.0, 0.0, 1e-05, 0.0, 0.0, 0.0, 1e-05)",-0.02392578125,0.1435546875,9.8095703125,"(0.01, 0.0, 0.0, 0.0, 0.01, 0.0, 0.0, 0.0, 0.01)"
2025/07/11/14:06:08.749417,166,1752242768,748847464,imu_link,0.0032964812899626116,-0.007036526849313018,-0.9618462706547037,0.2734801128576665,"(0.001, 0.0, 0.0, 0.0, 0.001, 0.0, 0.0, 0.0, 0.001)",0.0,0.0,0.0,"(1e-05, 0.0, 0.0, 0.0, 1e-05, 0.0, 0.0, 0.0, 1e-05)",-0.02392578125,0.1435546875,9.8095703125,"(0.01, 0.0, 0.0, 0.0, 0.01, 0.0, 0.0, 0.0, 0.01)"
2025/07/11/14:06:08.776846,167,1752242768,776449645,imu_link,0.0032964812899626116,-0.007036526849313018,-0.9618462706547037,0.2734801128576665,"(0.001, 0.0, 0.0, 0.0, 0.001, 0.0, 0.0, 0.0, 0.001)",0.0,0.0,0.0,"(1e-05, 0.0, 0.0, 0.0, 1e-05, 0.0, 0.0, 0.0, 1e-05)",-0.02392578125,0.1435546875,9.795214843750001,"(0.01, 0.0, 0.0, 0.0, 0.01, 0.0, 0.0, 0.0, 0.01)"
2025/07/11/14:06:08.827147,168,1752242768,826719602,imu_link,0.0032964812899626116,-0.007036526849313018,-0.9618462706547037,0.2734801128576665,"(0.001, 0.0, 0.0, 0.0, 0.001, 0.0, 0.0, 0.0, 0.001)",0.0,0.0,0.0,"(1e-05, 0.0, 0.0, 0.0, 1e-05, 0.0, 0.0, 0.0, 1e-05)",-0.014355468750000001,0.12919921875,9.814355468750001,"(0.01, 0.0, 0.0, 0.0, 0.01, 0.0, 0.0, 0.0, 0.01)"
2025/07/11/14:06:08.849395,169,1752242768,848834660,imu_link,0.0032964812899626116,-0.007036526849313018,-0.9618462706547037,0.2734801128576665,"(0.001, 0.0, 0.0, 0.0, 0.001, 0.0, 0.0, 0.0, 0.001)",0.0,0.0,0.0,"(1e-05, 0.0, 0.0, 0.0, 1e-05, 0.0, 0.0, 0.0, 1e-05)",-0.014355468750000001,0.12919921875,9.814355468750001,"(0.01, 0.0, 0.0, 0.0, 0.01, 0.0, 0.0, 0.0, 0.01)"
2025/07/11/14:06:08.877499,170,1752242768,877205435,imu_link,0.0032964812899626116,-0.007036526849313018,-0.9618462706547037,0.2734801128576665,"(0.001, 0.0, 0.0, 0.0, 0.001, 0.0, 0.0, 0.0, 0.001)",0.0,0.0,0.0,"(1e-05, 0.0, 0.0, 0.0, 1e-05, 0.0, 0.0, 0.0, 1e-05)",-0.02392578125,0.13398437500000002,9.80478515625,"(0.01, 0.0, 0.0, 0.0, 0.01, 0.0, 0.0, 0.0, 0.01)"
2025/07/11/14:06:08.927540,171,1752242768,927215013,imu_link,0.0032964812899626116,-0.007036526849313018,-0.9618462706547037,0.2734801128576665,"(0.001, 0.0, 0.0, 0.0, 0.001, 0.0, 0.0, 0.0, 0.001)",0.0,0.0,0.0,"(1e-05, 0.0, 0.0, 0.0, 1e-05, 0.0, 0.0, 0.0, 1e-05)",-0.02392578125,0.13876953125000002,9.8095703125,"(0.01, 0.0, 0.0, 0.0, 0.01, 0.0, 0.0, 0.0, 0.01)"
2025/07/11/14:06:08.949301,172,1752242768,948855679,imu_link,0.0032964812899626116,-0.007036526849313018,-0.9618462706547037,0.2734801128576665,"(0.001, 0.0, 0.0, 0.0, 0.001, 0.0, 0.0, 0.0, 0.001)",0.0,0.0,0.0,"(1e-05, 0.0, 0.0, 0.0, 1e-05, 0.0, 0.0, 0.0, 1e-05)",-0.02392578125,0.13876953125000002,9.8095703125,"(0.01, 0.0, 0.0, 0.0, 0.01, 0.0, 0.0, 0.0, 0.01)"
2025/07/11/14:06:08.977729,173,1752242768,977439815,imu_link,0.0032964812899626116,-0.007036526849313018,-0.9618462706547037,0.2734801128576665,"(0.001, 0.0, 0.0, 0.0, 0.001, 0.0, 0.0, 0.0, 0.001)",0.0,0.0,0.0,"(1e-05, 0.0, 0.0, 0.0, 1e-05, 0.0, 0.0, 0.0, 1e-05)",-0.02392578125,0.13398437500000002,9.8095703125,"(0.01, 0.0, 0.0, 0.0, 0.01, 0.0, 0.0, 0.0, 0.01)"
2025/07/11/14:06:09.028025,174,1752242769,27722135,imu_link,0.0032964812899626116,-0.007036526849313018,-0.9618462706547037,0.2734801128576665,"(0.001, 0.0, 0.0, 0.0, 0.001, 0.0, 0.0, 0.0, 0.001)",0.0,0.0,0.0,"(1e-05, 0.0, 0.0, 0.0, 1e-05, 0.0, 0.0, 0.0, 1e-05)",-0.019140625,0.12919921875,9.8095703125,"(0.01, 0.0, 0.0, 0.0, 0.01, 0.0, 0.0, 0.0, 0.01)"
2025/07/11/14:06:09.049369,175,1752242769,48885836,imu_link,0.0032964812899626116,-0.007036526849313018,-0.9618462706547037,0.2734801128576665,"(0.001, 0.0, 0.0, 0.0, 0.001, 0.0, 0.0, 0.0, 0.001)",0.0,0.0,0.0,"(1e-05, 0.0, 0.0, 0.0, 1e-05, 0.0, 0.0, 0.0, 1e-05)",-0.019140625,0.12919921875,9.8095703125,"(0.01, 0.0, 0.0, 0.0, 0.01, 0.0, 0.0, 0.0, 0.01)"
2025/07/11/14:06:09.078306,176,1752242769,77968889,imu_link,0.0032964812899626116,-0.007036526849313018,-0.9618462706547037,0.2734801128576665,"(0.001, 0.0, 0.0, 0.0, 0.001, 0.0, 0.0, 0.0, 0.001)",0.0,0.0,0.0,"(1e-05, 0.0, 0.0, 0.0, 1e-05, 0.0, 0.0, 0.0, 1e-05)",-0.019140625,0.13876953125000002,9.80478515625,"(0.01, 0.0, 0.0, 0.0, 0.01, 0.0, 0.0, 0.0, 0.01)"
2025/07/11/14:06:09.128523,177,1752242769,128211786,imu_link,0.0032964812899626116,-0.007036526849313018,-0.9618462706547037,0.2734801128576665,"(0.001, 0.0, 0.0, 0.0, 0.001, 0.0, 0.0, 0.0, 0.001)",0.0,0.0,0.0,"(1e-05, 0.0, 0.0, 0.0, 1e-05, 0.0, 0.0, 0.0, 1e-05)",-0.02392578125,0.13876953125000002,9.8095703125,"(0.01, 0.0, 0.0, 0.0, 0.01, 0.0, 0.0, 0.0, 0.01)"
2025/07/11/14:06:09.149637,178,1752242769,149061348,imu_link,0.0032964812899626116,-0.007036526849313018,-0.9618462706547037,0.2734801128576665,"(0.001, 0.0, 0.0, 0.0, 0.001, 0.0, 0.0, 0.0, 0.001)",0.0,0.0,0.0,"(1e-05, 0.0, 0.0, 0.0, 1e-05, 0.0, 0.0, 0.0, 1e-05)",-0.02392578125,0.13876953125000002,9.8095703125,"(0.01, 0.0, 0.0, 0.0, 0.01, 0.0, 0.0, 0.0, 0.01)"
2025/07/11/14:06:09.178719,179,1752242769,178425018,imu_link,0.0032964812899626116,-0.007036526849313018,-0.9618462706547037,0.2734801128576665,"(0.001, 0.0, 0.0, 0.0, 0.001, 0.0, 0.0, 0.0, 0.001)",0.0,0.0,0.0,"(1e-05, 0.0, 0.0, 0.0, 1e-05, 0.0, 0.0, 0.0, 1e-05)",-0.02392578125,0.12919921875,9.814355468750001,"(0.01, 0.0, 0.0, 0.0, 0.01, 0.0, 0.0, 0.0, 0.01)"
2025/07/11/14:06:09.229048,180,1752242769,228708571,imu_link,0.0032964812899626116,-0.007036526849313018,-0.9618462706547037,0.2734801128576665,"(0.001, 0.0, 0.0, 0.0, 0.001, 0.0, 0.0, 0.0, 0.001)",0.0,0.0,0.0,"(1e-05, 0.0, 0.0, 0.0, 1e-05, 0.0, 0.0, 0.0, 1e-05)",-0.02392578125,0.13398437500000002,9.80478515625,"(0.01, 0.0, 0.0, 0.0, 0.01, 0.0, 0.0, 0.0, 0.01)"
2025/07/11/14:06:09.249600,181,1752242769,249065188,imu_link,0.0032964812899626116,-0.007036526849313018,-0.9618462706547037,0.2734801128576665,"(0.001, 0.0, 0.0, 0.0, 0.001, 0.0, 0.0, 0.0, 0.001)",0.0,0.0,0.0,"(1e-05, 0.0, 0.0, 0.0, 1e-05, 0.0, 0.0, 0.0, 1e-05)",-0.02392578125,0.13398437500000002,9.80478515625,"(0.01, 0.0, 0.0, 0.0, 0.01, 0.0, 0.0, 0.0, 0.01)"
2025/07/11/14:06:09.279330,182,1752242769,279027231,imu_link,0.0032964812899626116,-0.007036526849313018,-0.9618462706547037,0.2734801128576665,"(0.001, 0.0, 0.0, 0.0, 0.001, 0.0, 0.0, 0.0, 0.001)",0.0,0.0,0.0,"(1e-05, 0.0, 0.0, 0.0, 1e-05, 0.0, 0.0, 0.0, 1e-05)",-0.019140625,0.13876953125000002,9.80478515625,"(0.01, 0.0, 0.0, 0.0, 0.01, 0.0, 0.0, 0.0, 0.01)"
2025/07/11/14:06:09.329537,183,1752242769,329213372,imu_link,0.0032964812899626116,-0.007036526849313018,-0.9618462706547037,0.2734801128576665,"(0.001, 0.0, 0.0, 0.0, 0.001, 0.0, 0.0, 0.0, 0.001)",0.0,0.0,0.0,"(1e-05, 0.0, 0.0, 0.0, 1e-05, 0.0, 0.0, 0.0, 1e-05)",-0.02392578125,0.13398437500000002,9.8095703125,"(0.01, 0.0, 0.0, 0.0, 0.01, 0.0, 0.0, 0.0, 0.01)"
2025/07/11/14:06:09.349751,184,1752242769,349176659,imu_link,0.0032964812899626116,-0.007036526849313018,-0.9618462706547037,0.2734801128576665,"(0.001, 0.0, 0.0, 0.0, 0.001, 0.0, 0.0, 0.0, 0.001)",0.0,0.0,0.0,"(1e-05, 0.0, 0.0, 0.0, 1e-05, 0.0, 0.0, 0.0, 1e-05)",-0.02392578125,0.13398437500000002,9.8095703125,"(0.01, 0.0, 0.0, 0.0, 0.01, 0.0, 0.0, 0.0, 0.01)"
2025/07/11/14:06:09.380351,185,1752242769,379905052,imu_link,0.0032964812899626116,-0.007036526849313018,-0.9618462706547037,0.2734801128576665,"(0.001, 0.0, 0.0, 0.0, 0.001, 0.0, 0.0, 0.0, 0.001)",0.0,0.0,0.0,"(1e-05, 0.0, 0.0, 0.0, 1e-05, 0.0, 0.0, 0.0, 1e-05)",-0.02392578125,0.13398437500000002,9.8095703125,"(0.01, 0.0, 0.0, 0.0, 0.01, 0.0, 0.0, 0.0, 0.01)"
2025/07/11/14:06:09.430348,186,1752242769,429948515,imu_link,0.0032964812899626116,-0.007036526849313018,-0.9618462706547037,0.2734801128576665,"(0.001, 0.0, 0.0, 0.0, 0.001, 0.0, 0.0, 0.0, 0.001)",0.0,0.0,0.0,"(1e-05, 0.0, 0.0, 0.0, 1e-05, 0.0, 0.0, 0.0, 1e-05)",-0.02392578125,0.13398437500000002,9.8095703125,"(0.01, 0.0, 0.0, 0.0, 0.01, 0.0, 0.0, 0.0, 0.01)"
2025/07/11/14:06:09.449682,187,1752242769,449077535,imu_link,0.0032964812899626116,-0.007036526849313018,-0.9618462706547037,0.2734801128576665,"(0.001, 0.0, 0.0, 0.0, 0.001, 0.0, 0.0, 0.0, 0.001)",0.0,0.0,0.0,"(1e-05, 0.0, 0.0, 0.0, 1e-05, 0.0, 0.0, 0.0, 1e-05)",-0.02392578125,0.13398437500000002,9.8095703125,"(0.01, 0.0, 0.0, 0.0, 0.01, 0.0, 0.0, 0.0, 0.01)"
2025/07/11/14:06:09.480372,188,1752242769,480048273,imu_link,0.0032964812899626116,-0.007036526849313018,-0.9618462706547037,0.2734801128576665,"(0.001, 0.0, 0.0, 0.0, 0.001, 0.0, 0.0, 0.0, 0.001)",0.0,0.0,0.0,"(1e-05, 0.0, 0.0, 0.0, 1e-05, 0.0, 0.0, 0.0, 1e-05)",-0.02392578125,0.13398437500000002,9.8095703125,"(0.01, 0.0, 0.0, 0.0, 0.01, 0.0, 0.0, 0.0, 0.01)"
2025/07/11/14:06:09.530746,189,1752242769,530329051,imu_link,0.0032964812899626116,-0.007036526849313018,-0.9618462706547037,0.2734801128576665,"(0.001, 0.0, 0.0, 0.0, 0.001, 0.0, 0.0, 0.0, 0.001)",0.0,0.0,0.0,"(1e-05, 0.0, 0.0, 0.0, 1e-05, 0.0, 0.0, 0.0, 1e-05)",-0.02392578125,0.13398437500000002,9.8095703125,"(0.01, 0.0, 0.0, 0.0, 0.01, 0.0, 0.0, 0.0, 0.01)"
2025/07/11/14:06:09.549639,190,1752242769,549063581,imu_link,0.0032964812899626116,-0.007036526849313018,-0.9618462706547037,0.2734801128576665,"(0.001, 0.0, 0.0, 0.0, 0.001, 0.0, 0.0, 0.0, 0.001)",0.0,0.0,0.0,"(1e-05, 0.0, 0.0, 0.0, 1e-05, 0.0, 0.0, 0.0, 1e-05)",-0.02392578125,0.13398437500000002,9.8095703125,"(0.01, 0.0, 0.0, 0.0, 0.01, 0.0, 0.0, 0.0, 0.01)"
2025/07/11/14:06:09.580721,191,1752242769,580453686,imu_link,0.0032964812899626116,-0.007036526849313018,-0.9618462706547037,0.2734801128576665,"(0.001, 0.0, 0.0, 0.0, 0.001, 0.0, 0.0, 0.0, 0.001)",0.0,0.0,0.0,"(1e-05, 0.0, 0.0, 0.0, 1e-05, 0.0, 0.0, 0.0, 1e-05)",-0.02392578125,0.13398437500000002,9.8095703125,"(0.01, 0.0, 0.0, 0.0, 0.01, 0.0, 0.0, 0.0, 0.01)"
2025/07/11/14:06:09.630845,192,1752242769,630613527,imu_link,0.0032964812899626116,-0.007036526849313018,-0.9618462706547037,0.2734801128576665,"(0.001, 0.0, 0.0, 0.0, 0.001, 0.0, 0.0, 0.0, 0.001)",0.0,0.0,0.0,"(1e-05, 0.0, 0.0, 0.0, 1e-05, 0.0, 0.0, 0.0, 1e-05)",-0.02392578125,0.13398437500000002,9.8095703125,"(0.01, 0.0, 0.0, 0.0, 0.01, 0.0, 0.0, 0.0, 0.01)"
2025/07/11/14:06:09.649641,193,1752242769,649064305,imu_link,0.0032964812899626116,-0.007036526849313018,-0.9618462706547037,0.2734801128576665,"(0.001, 0.0, 0.0, 0.0, 0.001, 0.0, 0.0, 0.0, 0.001)",0.0,0.0,0.0,"(1e-05, 0.0, 0.0, 0.0, 1e-05, 0.0, 0.0, 0.0, 1e-05)",-0.02392578125,0.13398437500000002,9.8095703125,"(0.01, 0.0, 0.0, 0.0, 0.01, 0.0, 0.0, 0.0, 0.01)"
2025/07/11/14:06:09.681437,194,1752242769,681037685,imu_link,0.0032964812899626116,-0.007036526849313018,-0.9618462706547037,0.2734801128576665,"(0.001, 0.0, 0.0, 0.0, 0.001, 0.0, 0.0, 0.0, 0.001)",0.0,0.0,0.0,"(1e-05, 0.0, 0.0, 0.0, 1e-05, 0.0, 0.0, 0.0, 1e-05)",-0.02392578125,0.13398437500000002,9.8095703125,"(0.01, 0.0, 0.0, 0.0, 0.01, 0.0, 0.0, 0.0, 0.01)"
2025/07/11/14:06:09.731881,195,1752242769,731435844,imu_link,0.0032964812899626116,-0.007036526849313018,-0.9618462706547037,0.2734801128576665,"(0.001, 0.0, 0.0, 0.0, 0.001, 0.0, 0.0, 0.0, 0.001)",0.0,0.0,0.0,"(1e-05, 0.0, 0.0, 0.0, 1e-05, 0.0, 0.0, 0.0, 1e-05)",-0.02392578125,0.13398437500000002,9.8095703125,"(0.01, 0.0, 0.0, 0.0, 0.01, 0.0, 0.0, 0.0, 0.01)"
2025/07/11/14:06:09.749667,196,1752242769,749062453,imu_link,0.0032964812899626116,-0.007036526849313018,-0.9618462706547037,0.2734801128576665,"(0.001, 0.0, 0.0, 0.0, 0.001, 0.0, 0.0, 0.0, 0.001)",0.0,0.0,0.0,"(1e-05, 0.0, 0.0, 0.0, 1e-05, 0.0, 0.0, 0.0, 1e-05)",-0.02392578125,0.13398437500000002,9.8095703125,"(0.01, 0.0, 0.0, 0.0, 0.01, 0.0, 0.0, 0.0, 0.01)"
2025/07/11/14:06:09.781942,197,1752242769,781453568,imu_link,0.0032964812899626116,-0.007036526849313018,-0.9618462706547037,0.2734801128576665,"(0.001, 0.0, 0.0, 0.0, 0.001, 0.0, 0.0, 0.0, 0.001)",0.0,0.0,0.0,"(1e-05, 0.0, 0.0, 0.0, 1e-05, 0.0, 0.0, 0.0, 1e-05)",-0.02392578125,0.13398437500000002,9.8095703125,"(0.01, 0.0, 0.0, 0.0, 0.01, 0.0, 0.0, 0.0, 0.01)"
2025/07/11/14:06:09.832359,198,1752242769,831937949,imu_link,0.0032964812899626116,-0.007036526849313018,-0.9618462706547037,0.2734801128576665,"(0.001, 0.0, 0.0, 0.0, 0.001, 0.0, 0.0, 0.0, 0.001)",0.0,0.0,0.0,"(1e-05, 0.0, 0.0, 0.0, 1e-05, 0.0, 0.0, 0.0, 1e-05)",-0.02392578125,0.13398437500000002,9.80478515625,"(0.01, 0.0, 0.0, 0.0, 0.01, 0.0, 0.0, 0.0, 0.01)"
2025/07/11/14:06:09.849364,199,1752242769,848866998,imu_link,0.0032964812899626116,-0.007036526849313018,-0.9618462706547037,0.2734801128576665,"(0.001, 0.0, 0.0, 0.0, 0.001, 0.0, 0.0, 0.0, 0.001)",0.0,0.0,0.0,"(1e-05, 0.0, 0.0, 0.0, 1e-05, 0.0, 0.0, 0.0, 1e-05)",-0.02392578125,0.13398437500000002,9.80478515625,"(0.01, 0.0, 0.0, 0.0, 0.01, 0.0, 0.0, 0.0, 0.01)"
2025/07/11/14:06:09.882358,200,1752242769,881970030,imu_link,0.0032964812899626116,-0.007036526849313018,-0.9618462706547037,0.2734801128576665,"(0.001, 0.0, 0.0, 0.0, 0.001, 0.0, 0.0, 0.0, 0.001)",0.0,0.0,0.0,"(1e-05, 0.0, 0.0, 0.0, 1e-05, 0.0, 0.0, 0.0, 1e-05)",-0.02392578125,0.13398437500000002,9.8095703125,"(0.01, 0.0, 0.0, 0.0, 0.01, 0.0, 0.0, 0.0, 0.01)"
2025/07/11/14:06:09.932909,201,1752242769,932529221,imu_link,0.0032964812899626116,-0.007036526849313018,-0.9618462706547037,0.2734801128576665,"(0.001, 0.0, 0.0, 0.0, 0.001, 0.0, 0.0, 0.0, 0.001)",0.0,0.0,0.0,"(1e-05, 0.0, 0.0, 0.0, 1e-05, 0.0, 0.0, 0.0, 1e-05)",-0.02392578125,0.13398437500000002,9.8095703125,"(0.01, 0.0, 0.0, 0.0, 0.01, 0.0, 0.0, 0.0, 0.01)"
2025/07/11/14:06:09.949568,202,1752242769,949088426,imu_link,0.0032833714976851784,-0.006990418913904796,-0.9618466068588436,0.2734802705665351,"(0.001, 0.0, 0.0, 0.0, 0.001, 0.0, 0.0, 0.0, 0.001)",0.0,0.0,0.0,"(1e-05, 0.0, 0.0, 0.0, 1e-05, 0.0, 0.0, 0.0, 1e-05)",-0.02392578125,0.13398437500000002,9.8095703125,"(0.01, 0.0, 0.0, 0.0, 0.01, 0.0, 0.0, 0.0, 0.01)"
2025/07/11/14:06:09.982904,203,1752242769,982428893,imu_link,0.0032833714976851784,-0.006990418913904796,-0.9618466068588436,0.2734802705665351,"(0.001, 0.0, 0.0, 0.0, 0.001, 0.0, 0.0, 0.0, 0.001)",0.0,0.0,0.0,"(1e-05, 0.0, 0.0, 0.0, 1e-05, 0.0, 0.0, 0.0, 1e-05)",-0.019140625,0.13398437500000002,9.80478515625,"(0.01, 0.0, 0.0, 0.0, 0.01, 0.0, 0.0, 0.0, 0.01)"
2025/07/11/14:06:10.033339,204,1752242770,32925528,imu_link,0.0032833714976851784,-0.006990418913904796,-0.9618466068588436,0.2734802705665351,"(0.001, 0.0, 0.0, 0.0, 0.001, 0.0, 0.0, 0.0, 0.001)",0.0,0.0,0.0,"(1e-05, 0.0, 0.0, 0.0, 1e-05, 0.0, 0.0, 0.0, 1e-05)",-0.02392578125,0.13398437500000002,9.8095703125,"(0.01, 0.0, 0.0, 0.0, 0.01, 0.0, 0.0, 0.0, 0.01)"
2025/07/11/14:06:10.049569,205,1752242770,49096815,imu_link,0.0032833714976851784,-0.006990418913904796,-0.9618466068588436,0.2734802705665351,"(0.001, 0.0, 0.0, 0.0, 0.001, 0.0, 0.0, 0.0, 0.001)",0.0,0.0,0.0,"(1e-05, 0.0, 0.0, 0.0, 1e-05, 0.0, 0.0, 0.0, 1e-05)",-0.02392578125,0.13398437500000002,9.8095703125,"(0.01, 0.0, 0.0, 0.0, 0.01, 0.0, 0.0, 0.0, 0.01)"
2025/07/11/14:06:10.083528,206,1752242770,83106781,imu_link,0.0032833714976851784,-0.006990418913904796,-0.9618466068588436,0.2734802705665351,"(0.001, 0.0, 0.0, 0.0, 0.001, 0.0, 0.0, 0.0, 0.001)",0.0,0.0,0.0,"(1e-05, 0.0, 0.0, 0.0, 1e-05, 0.0, 0.0, 0.0, 1e-05)",-0.02392578125,0.13398437500000002,9.8095703125,"(0.01, 0.0, 0.0, 0.0, 0.01, 0.0, 0.0, 0.0, 0.01)"
2025/07/11/14:06:10.133810,207,1752242770,133406666,imu_link,0.0032833714976851784,-0.006990418913904796,-0.9618466068588436,0.2734802705665351,"(0.001, 0.0, 0.0, 0.0, 0.001, 0.0, 0.0, 0.0, 0.001)",0.0,0.0,0.0,"(1e-05, 0.0, 0.0, 0.0, 1e-05, 0.0, 0.0, 0.0, 1e-05)",-0.02392578125,0.13398437500000002,9.8095703125,"(0.01, 0.0, 0.0, 0.0, 0.01, 0.0, 0.0, 0.0, 0.01)"
2025/07/11/14:06:10.149343,208,1752242770,148860255,imu_link,0.0032833714976851784,-0.006990418913904796,-0.9618466068588436,0.2734802705665351,"(0.001, 0.0, 0.0, 0.0, 0.001, 0.0, 0.0, 0.0, 0.001)",0.0,0.0,0.0,"(1e-05, 0.0, 0.0, 0.0, 1e-05, 0.0, 0.0, 0.0, 1e-05)",-0.02392578125,0.13398437500000002,9.8095703125,"(0.01, 0.0, 0.0, 0.0, 0.01, 0.0, 0.0, 0.0, 0.01)"
2025/07/11/14:06:10.183872,209,1752242770,183467943,imu_link,0.0032833714976851784,-0.006990418913904796,-0.9618466068588436,0.2734802705665351,"(0.001, 0.0, 0.0, 0.0, 0.001, 0.0, 0.0, 0.0, 0.001)",0.0,0.0,0.0,"(1e-05, 0.0, 0.0, 0.0, 1e-05, 0.0, 0.0, 0.0, 1e-05)",-0.02392578125,0.13398437500000002,9.8095703125,"(0.01, 0.0, 0.0, 0.0, 0.01, 0.0, 0.0, 0.0, 0.01)"
2025/07/11/14:06:10.234203,210,1752242770,233757189,imu_link,0.0032833714976851784,-0.006990418913904796,-0.9618466068588436,0.2734802705665351,"(0.001, 0.0, 0.0, 0.0, 0.001, 0.0, 0.0, 0.0, 0.001)",0.0,0.0,0.0,"(1e-05, 0.0, 0.0, 0.0, 1e-05, 0.0, 0.0, 0.0, 1e-05)",-0.02392578125,0.13398437500000002,9.8095703125,"(0.01, 0.0, 0.0, 0.0, 0.01, 0.0, 0.0, 0.0, 0.01)"
2025/07/11/14:06:10.249669,211,1752242770,249088889,imu_link,0.0032964812899626116,-0.007036526849313018,-0.9618462706547037,0.2734801128576665,"(0.001, 0.0, 0.0, 0.0, 0.001, 0.0, 0.0, 0.0, 0.001)",0.0,0.0,0.0,"(1e-05, 0.0, 0.0, 0.0, 1e-05, 0.0, 0.0, 0.0, 1e-05)",-0.02392578125,0.13398437500000002,9.8095703125,"(0.01, 0.0, 0.0, 0.0, 0.01, 0.0, 0.0, 0.0, 0.01)"
2025/07/11/14:06:10.284329,212,1752242770,283957687,imu_link,0.0032964812899626116,-0.007036526849313018,-0.9618462706547037,0.2734801128576665,"(0.001, 0.0, 0.0, 0.0, 0.001, 0.0, 0.0, 0.0, 0.001)",0.0,0.0,0.0,"(1e-05, 0.0, 0.0, 0.0, 1e-05, 0.0, 0.0, 0.0, 1e-05)",-0.02392578125,0.13398437500000002,9.8095703125,"(0.01, 0.0, 0.0, 0.0, 0.01, 0.0, 0.0, 0.0, 0.01)"
2025/07/11/14:06:10.334664,213,1752242770,334299190,imu_link,0.0032964812899626116,-0.007036526849313018,-0.9618462706547037,0.2734801128576665,"(0.001, 0.0, 0.0, 0.0, 0.001, 0.0, 0.0, 0.0, 0.001)",0.0,0.0,0.0,"(1e-05, 0.0, 0.0, 0.0, 1e-05, 0.0, 0.0, 0.0, 1e-05)",-0.02392578125,0.13398437500000002,9.80478515625,"(0.01, 0.0, 0.0, 0.0, 0.01, 0.0, 0.0, 0.0, 0.01)"
2025/07/11/14:06:10.349623,214,1752242770,349095966,imu_link,0.0032964812899626116,-0.007036526849313018,-0.9618462706547037,0.2734801128576665,"(0.001, 0.0, 0.0, 0.0, 0.001, 0.0, 0.0, 0.0, 0.001)",0.0,0.0,0.0,"(1e-05, 0.0, 0.0, 0.0, 1e-05, 0.0, 0.0, 0.0, 1e-05)",-0.02392578125,0.13398437500000002,9.80478515625,"(0.01, 0.0, 0.0, 0.0, 0.01, 0.0, 0.0, 0.0, 0.01)"
2025/07/11/14:06:10.385366,215,1752242770,384874532,imu_link,0.0032964812899626116,-0.007036526849313018,-0.9618462706547037,0.2734801128576665,"(0.001, 0.0, 0.0, 0.0, 0.001, 0.0, 0.0, 0.0, 0.001)",0.0,0.0,0.0,"(1e-05, 0.0, 0.0, 0.0, 1e-05, 0.0, 0.0, 0.0, 1e-05)",-0.02392578125,0.13398437500000002,9.8095703125,"(0.01, 0.0, 0.0, 0.0, 0.01, 0.0, 0.0, 0.0, 0.01)"
2025/07/11/14:06:10.435100,216,1752242770,434787621,imu_link,0.0032964812899626116,-0.007036526849313018,-0.9618462706547037,0.2734801128576665,"(0.001, 0.0, 0.0, 0.0, 0.001, 0.0, 0.0, 0.0, 0.001)",0.0,0.0,0.0,"(1e-05, 0.0, 0.0, 0.0, 1e-05, 0.0, 0.0, 0.0, 1e-05)",-0.02392578125,0.13398437500000002,9.8095703125,"(0.01, 0.0, 0.0, 0.0, 0.01, 0.0, 0.0, 0.0, 0.01)"
2025/07/11/14:06:10.449588,217,1752242770,449055314,imu_link,0.0032964812899626116,-0.007036526849313018,-0.9618462706547037,0.2734801128576665,"(0.001, 0.0, 0.0, 0.0, 0.001, 0.0, 0.0, 0.0, 0.001)",0.0,0.0,0.0,"(1e-05, 0.0, 0.0, 0.0, 1e-05, 0.0, 0.0, 0.0, 1e-05)",-0.02392578125,0.13398437500000002,9.8095703125,"(0.01, 0.0, 0.0, 0.0, 0.01, 0.0, 0.0, 0.0, 0.01)"
2025/07/11/14:06:10.485607,218,1752242770,485197573,imu_link,0.0032964812899626116,-0.007036526849313018,-0.9618462706547037,0.2734801128576665,"(0.001, 0.0, 0.0, 0.0, 0.001, 0.0, 0.0, 0.0, 0.001)",0.0,0.0,0.0,"(1e-05, 0.0, 0.0, 0.0, 1e-05, 0.0, 0.0, 0.0, 1e-05)",-0.02392578125,0.13398437500000002,9.8095703125,"(0.01, 0.0, 0.0, 0.0, 0.01, 0.0, 0.0, 0.0, 0.01)"
2025/07/11/14:06:10.535645,219,1752242770,535172849,imu_link,0.0032964812899626116,-0.007036526849313018,-0.9618462706547037,0.2734801128576665,"(0.001, 0.0, 0.0, 0.0, 0.001, 0.0, 0.0, 0.0, 0.001)",0.0,0.0,0.0,"(1e-05, 0.0, 0.0, 0.0, 1e-05, 0.0, 0.0, 0.0, 1e-05)",-0.02392578125,0.13398437500000002,9.8095703125,"(0.01, 0.0, 0.0, 0.0, 0.01, 0.0, 0.0, 0.0, 0.01)"
2025/07/11/14:06:10.549558,220,1752242770,549087869,imu_link,0.0032964812899626116,-0.007036526849313018,-0.9618462706547037,0.2734801128576665,"(0.001, 0.0, 0.0, 0.0, 0.001, 0.0, 0.0, 0.0, 0.001)",0.0,0.0,0.0,"(1e-05, 0.0, 0.0, 0.0, 1e-05, 0.0, 0.0, 0.0, 1e-05)",-0.02392578125,0.13398437500000002,9.8095703125,"(0.01, 0.0, 0.0, 0.0, 0.01, 0.0, 0.0, 0.0, 0.01)"
2025/07/11/14:06:10.586030,221,1752242770,585590204,imu_link,0.0032964812899626116,-0.007036526849313018,-0.9618462706547037,0.2734801128576665,"(0.001, 0.0, 0.0, 0.0, 0.001, 0.0, 0.0, 0.0, 0.001)",0.0,0.0,0.0,"(1e-05, 0.0, 0.0, 0.0, 1e-05, 0.0, 0.0, 0.0, 1e-05)",-0.02392578125,0.13398437500000002,9.8095703125,"(0.01, 0.0, 0.0, 0.0, 0.01, 0.0, 0.0, 0.0, 0.01)"
2025/07/11/14:06:10.636439,222,1752242770,636009885,imu_link,0.0032964812899626116,-0.007036526849313018,-0.9618462706547037,0.2734801128576665,"(0.001, 0.0, 0.0, 0.0, 0.001, 0.0, 0.0, 0.0, 0.001)",0.0,0.0,0.0,"(1e-05, 0.0, 0.0, 0.0, 1e-05, 0.0, 0.0, 0.0, 1e-05)",-0.02392578125,0.13398437500000002,9.80478515625,"(0.01, 0.0, 0.0, 0.0, 0.01, 0.0, 0.0, 0.0, 0.01)"
2025/07/11/14:06:10.649287,223,1752242770,648859344,imu_link,0.0032964812899626116,-0.007036526849313018,-0.9618462706547037,0.2734801128576665,"(0.001, 0.0, 0.0, 0.0, 0.001, 0.0, 0.0, 0.0, 0.001)",0.0,0.0,0.0,"(1e-05, 0.0, 0.0, 0.0, 1e-05, 0.0, 0.0, 0.0, 1e-05)",-0.02392578125,0.13398437500000002,9.80478515625,"(0.01, 0.0, 0.0, 0.0, 0.01, 0.0, 0.0, 0.0, 0.01)"
2025/07/11/14:06:10.686452,224,1752242770,686007803,imu_link,0.0032964812899626116,-0.007036526849313018,-0.9618462706547037,0.2734801128576665,"(0.001, 0.0, 0.0, 0.0, 0.001, 0.0, 0.0, 0.0, 0.001)",0.0,0.0,0.0,"(1e-05, 0.0, 0.0, 0.0, 1e-05, 0.0, 0.0, 0.0, 1e-05)",-0.02392578125,0.13398437500000002,9.80478515625,"(0.01, 0.0, 0.0, 0.0, 0.01, 0.0, 0.0, 0.0, 0.01)"
2025/07/11/14:06:10.736655,225,1752242770,736232978,imu_link,0.0032964812899626116,-0.007036526849313018,-0.9618462706547037,0.2734801128576665,"(0.001, 0.0, 0.0, 0.0, 0.001, 0.0, 0.0, 0.0, 0.001)",0.0,0.0,0.0,"(1e-05, 0.0, 0.0, 0.0, 1e-05, 0.0, 0.0, 0.0, 1e-05)",-0.019140625,0.13398437500000002,9.80478515625,"(0.01, 0.0, 0.0, 0.0, 0.01, 0.0, 0.0, 0.0, 0.01)"
2025/07/11/14:06:10.749686,226,1752242770,749083900,imu_link,0.0032964812899626116,-0.007036526849313018,-0.9618462706547037,0.2734801128576665,"(0.001, 0.0, 0.0, 0.0, 0.001, 0.0, 0.0, 0.0, 0.001)",0.0,0.0,0.0,"(1e-05, 0.0, 0.0, 0.0, 1e-05, 0.0, 0.0, 0.0, 1e-05)",-0.019140625,0.13398437500000002,9.80478515625,"(0.01, 0.0, 0.0, 0.0, 0.01, 0.0, 0.0, 0.0, 0.01)"
2025/07/11/14:06:10.786875,227,1752242770,786480815,imu_link,0.0032964812899626116,-0.007036526849313018,-0.9618462706547037,0.2734801128576665,"(0.001, 0.0, 0.0, 0.0, 0.001, 0.0, 0.0, 0.0, 0.001)",0.0,0.0,0.0,"(1e-05, 0.0, 0.0, 0.0, 1e-05, 0.0, 0.0, 0.0, 1e-05)",-0.019140625,0.13398437500000002,9.8095703125,"(0.01, 0.0, 0.0, 0.0, 0.01, 0.0, 0.0, 0.0, 0.01)"
2025/07/11/14:06:10.837388,228,1752242770,836966740,imu_link,0.0032964812899626116,-0.007036526849313018,-0.9618462706547037,0.2734801128576665,"(0.001, 0.0, 0.0, 0.0, 0.001, 0.0, 0.0, 0.0, 0.001)",0.0,0.0,0.0,"(1e-05, 0.0, 0.0, 0.0, 1e-05, 0.0, 0.0, 0.0, 1e-05)",-0.02392578125,0.13398437500000002,9.80478515625,"(0.01, 0.0, 0.0, 0.0, 0.01, 0.0, 0.0, 0.0, 0.01)"
2025/07/11/14:06:10.849344,229,1752242770,848850556,imu_link,0.0032964812899626116,-0.007036526849313018,-0.9618462706547037,0.2734801128576665,"(0.001, 0.0, 0.0, 0.0, 0.001, 0.0, 0.0, 0.0, 0.001)",0.0,0.0,0.0,"(1e-05, 0.0, 0.0, 0.0, 1e-05, 0.0, 0.0, 0.0, 1e-05)",-0.02392578125,0.13398437500000002,9.80478515625,"(0.01, 0.0, 0.0, 0.0, 0.01, 0.0, 0.0, 0.0, 0.01)"
2025/07/11/14:06:10.887344,230,1752242770,886953838,imu_link,0.0032964812899626116,-0.007036526849313018,-0.9618462706547037,0.2734801128576665,"(0.001, 0.0, 0.0, 0.0, 0.001, 0.0, 0.0, 0.0, 0.001)",0.0,0.0,0.0,"(1e-05, 0.0, 0.0, 0.0, 1e-05, 0.0, 0.0, 0.0, 1e-05)",-0.02392578125,0.13398437500000002,9.8095703125,"(0.01, 0.0, 0.0, 0.0, 0.01, 0.0, 0.0, 0.0, 0.01)"
2025/07/11/14:06:10.937370,231,1752242770,937112368,imu_link,0.0032964812899626116,-0.007036526849313018,-0.9618462706547037,0.2734801128576665,"(0.001, 0.0, 0.0, 0.0, 0.001, 0.0, 0.0, 0.0, 0.001)",0.0,0.0,0.0,"(1e-05, 0.0, 0.0, 0.0, 1e-05, 0.0, 0.0, 0.0, 1e-05)",-0.02392578125,0.13398437500000002,9.80478515625,"(0.01, 0.0, 0.0, 0.0, 0.01, 0.0, 0.0, 0.0, 0.01)"
2025/07/11/14:06:10.949370,232,1752242770,948867643,imu_link,0.0032833714976851784,-0.006990418913904796,-0.9618466068588436,0.2734802705665351,"(0.001, 0.0, 0.0, 0.0, 0.001, 0.0, 0.0, 0.0, 0.001)",0.0,0.0,0.0,"(1e-05, 0.0, 0.0, 0.0, 1e-05, 0.0, 0.0, 0.0, 1e-05)",-0.02392578125,0.13398437500000002,9.80478515625,"(0.01, 0.0, 0.0, 0.0, 0.01, 0.0, 0.0, 0.0, 0.01)"
2025/07/11/14:06:10.987808,233,1752242770,987372549,imu_link,0.0032833714976851784,-0.006990418913904796,-0.9618466068588436,0.2734802705665351,"(0.001, 0.0, 0.0, 0.0, 0.001, 0.0, 0.0, 0.0, 0.001)",0.0,0.0,0.0,"(1e-05, 0.0, 0.0, 0.0, 1e-05, 0.0, 0.0, 0.0, 1e-05)",-0.019140625,0.13398437500000002,9.80478515625,"(0.01, 0.0, 0.0, 0.0, 0.01, 0.0, 0.0, 0.0, 0.01)"
2025/07/11/14:06:11.038118,234,1752242771,37810113,imu_link,0.0032833714976851784,-0.006990418913904796,-0.9618466068588436,0.2734802705665351,"(0.001, 0.0, 0.0, 0.0, 0.001, 0.0, 0.0, 0.0, 0.001)",0.0,0.0,0.0,"(1e-05, 0.0, 0.0, 0.0, 1e-05, 0.0, 0.0, 0.0, 1e-05)",-0.02392578125,0.13398437500000002,9.80478515625,"(0.01, 0.0, 0.0, 0.0, 0.01, 0.0, 0.0, 0.0, 0.01)"
2025/07/11/14:06:11.049225,235,1752242771,48840286,imu_link,0.0032833714976851784,-0.006990418913904796,-0.9618466068588436,0.2734802705665351,"(0.001, 0.0, 0.0, 0.0, 0.001, 0.0, 0.0, 0.0, 0.001)",0.0,0.0,0.0,"(1e-05, 0.0, 0.0, 0.0, 1e-05, 0.0, 0.0, 0.0, 1e-05)",-0.02392578125,0.13398437500000002,9.80478515625,"(0.01, 0.0, 0.0, 0.0, 0.01, 0.0, 0.0, 0.0, 0.01)"
2025/07/11/14:06:11.088142,236,1752242771,87873525,imu_link,0.0032833714976851784,-0.006990418913904796,-0.9618466068588436,0.2734802705665351,"(0.001, 0.0, 0.0, 0.0, 0.001, 0.0, 0.0, 0.0, 0.001)",0.0,0.0,0.0,"(1e-05, 0.0, 0.0, 0.0, 1e-05, 0.0, 0.0, 0.0, 1e-05)",-0.019140625,0.13398437500000002,9.8095703125,"(0.01, 0.0, 0.0, 0.0, 0.01, 0.0, 0.0, 0.0, 0.01)"
2025/07/11/14:06:11.138113,237,1752242771,138000908,imu_link,0.0032833714976851784,-0.006990418913904796,-0.9618466068588436,0.2734802705665351,"(0.001, 0.0, 0.0, 0.0, 0.001, 0.0, 0.0, 0.0, 0.001)",0.0,0.0,0.0,"(1e-05, 0.0, 0.0, 0.0, 1e-05, 0.0, 0.0, 0.0, 1e-05)",-0.02392578125,0.13398437500000002,9.8095703125,"(0.01, 0.0, 0.0, 0.0, 0.01, 0.0, 0.0, 0.0, 0.01)"
2025/07/11/14:06:11.148949,238,1752242771,148817340,imu_link,0.0032833714976851784,-0.006990418913904796,-0.9618466068588436,0.2734802705665351,"(0.001, 0.0, 0.0, 0.0, 0.001, 0.0, 0.0, 0.0, 0.001)",0.0,0.0,0.0,"(1e-05, 0.0, 0.0, 0.0, 1e-05, 0.0, 0.0, 0.0, 1e-05)",-0.02392578125,0.13398437500000002,9.8095703125,"(0.01, 0.0, 0.0, 0.0, 0.01, 0.0, 0.0, 0.0, 0.01)"
2025/07/11/14:06:11.188289,239,1752242771,188217167,imu_link,0.0032833714976851784,-0.006990418913904796,-0.9618466068588436,0.2734802705665351,"(0.001, 0.0, 0.0, 0.0, 0.001, 0.0, 0.0, 0.0, 0.001)",0.0,0.0,0.0,"(1e-05, 0.0, 0.0, 0.0, 1e-05, 0.0, 0.0, 0.0, 1e-05)",-0.02392578125,0.13398437500000002,9.8095703125,"(0.01, 0.0, 0.0, 0.0, 0.01, 0.0, 0.0, 0.0, 0.01)"
2025/07/11/14:06:11.238667,240,1752242771,238494441,imu_link,0.0032833714976851784,-0.006990418913904796,-0.9618466068588436,0.2734802705665351,"(0.001, 0.0, 0.0, 0.0, 0.001, 0.0, 0.0, 0.0, 0.001)",0.0,0.0,0.0,"(1e-05, 0.0, 0.0, 0.0, 1e-05, 0.0, 0.0, 0.0, 1e-05)",-0.02392578125,0.13398437500000002,9.80478515625,"(0.01, 0.0, 0.0, 0.0, 0.01, 0.0, 0.0, 0.0, 0.01)"
2025/07/11/14:06:11.249321,241,1752242771,248851360,imu_link,0.0032833714976851784,-0.006990418913904796,-0.9618466068588436,0.2734802705665351,"(0.001, 0.0, 0.0, 0.0, 0.001, 0.0, 0.0, 0.0, 0.001)",0.0,0.0,0.0,"(1e-05, 0.0, 0.0, 0.0, 1e-05, 0.0, 0.0, 0.0, 1e-05)",-0.02392578125,0.13398437500000002,9.80478515625,"(0.01, 0.0, 0.0, 0.0, 0.01, 0.0, 0.0, 0.0, 0.01)"
2025/07/11/14:06:11.289260,242,1752242771,288894986,imu_link,0.0032833714976851784,-0.006990418913904796,-0.9618466068588436,0.2734802705665351,"(0.001, 0.0, 0.0, 0.0, 0.001, 0.0, 0.0, 0.0, 0.001)",0.0,0.0,0.0,"(1e-05, 0.0, 0.0, 0.0, 1e-05, 0.0, 0.0, 0.0, 1e-05)",-0.02392578125,0.13398437500000002,9.8095703125,"(0.01, 0.0, 0.0, 0.0, 0.01, 0.0, 0.0, 0.0, 0.01)"
2025/07/11/14:06:11.339569,243,1752242771,339167491,imu_link,0.0032833714976851784,-0.006990418913904796,-0.9618466068588436,0.2734802705665351,"(0.001, 0.0, 0.0, 0.0, 0.001, 0.0, 0.0, 0.0, 0.001)",0.0,0.0,0.0,"(1e-05, 0.0, 0.0, 0.0, 1e-05, 0.0, 0.0, 0.0, 1e-05)",-0.02392578125,0.13398437500000002,9.8095703125,"(0.01, 0.0, 0.0, 0.0, 0.01, 0.0, 0.0, 0.0, 0.01)"
2025/07/11/14:06:11.349346,244,1752242771,348839103,imu_link,0.0032833714976851784,-0.006990418913904796,-0.9618466068588436,0.2734802705665351,"(0.001, 0.0, 0.0, 0.0, 0.001, 0.0, 0.0, 0.0, 0.001)",0.0,0.0,0.0,"(1e-05, 0.0, 0.0, 0.0, 1e-05, 0.0, 0.0, 0.0, 1e-05)",-0.02392578125,0.13398437500000002,9.8095703125,"(0.01, 0.0, 0.0, 0.0, 0.01, 0.0, 0.0, 0.0, 0.01)"
2025/07/11/14:06:11.389637,245,1752242771,389378169,imu_link,0.0032833714976851784,-0.006990418913904796,-0.9618466068588436,0.2734802705665351,"(0.001, 0.0, 0.0, 0.0, 0.001, 0.0, 0.0, 0.0, 0.001)",0.0,0.0,0.0,"(1e-05, 0.0, 0.0, 0.0, 1e-05, 0.0, 0.0, 0.0, 1e-05)",-0.02392578125,0.13398437500000002,9.80478515625,"(0.01, 0.0, 0.0, 0.0, 0.01, 0.0, 0.0, 0.0, 0.01)"
2025/07/11/14:06:11.439942,246,1752242771,439648270,imu_link,0.0032833714976851784,-0.006990418913904796,-0.9618466068588436,0.2734802705665351,"(0.001, 0.0, 0.0, 0.0, 0.001, 0.0, 0.0, 0.0, 0.001)",0.0,0.0,0.0,"(1e-05, 0.0, 0.0, 0.0, 1e-05, 0.0, 0.0, 0.0, 1e-05)",-0.02392578125,0.13398437500000002,9.8095703125,"(0.01, 0.0, 0.0, 0.0, 0.01, 0.0, 0.0, 0.0, 0.01)"
2025/07/11/14:06:11.449224,247,1752242771,448847655,imu_link,0.0032833714976851784,-0.006990418913904796,-0.9618466068588436,0.2734802705665351,"(0.001, 0.0, 0.0, 0.0, 0.001, 0.0, 0.0, 0.0, 0.001)",0.0,0.0,0.0,"(1e-05, 0.0, 0.0, 0.0, 1e-05, 0.0, 0.0, 0.0, 1e-05)",-0.02392578125,0.13398437500000002,9.8095703125,"(0.01, 0.0, 0.0, 0.0, 0.01, 0.0, 0.0, 0.0, 0.01)"
2025/07/11/14:06:11.490148,248,1752242771,489814485,imu_link,0.0032833714976851784,-0.006990418913904796,-0.9618466068588436,0.2734802705665351,"(0.001, 0.0, 0.0, 0.0, 0.001, 0.0, 0.0, 0.0, 0.001)",0.0,0.0,0.0,"(1e-05, 0.0, 0.0, 0.0, 1e-05, 0.0, 0.0, 0.0, 1e-05)",-0.02392578125,0.13398437500000002,9.8095703125,"(0.01, 0.0, 0.0, 0.0, 0.01, 0.0, 0.0, 0.0, 0.01)"
2025/07/11/14:06:11.540446,249,1752242771,540129279,imu_link,0.0032833714976851784,-0.006990418913904796,-0.9618466068588436,0.2734802705665351,"(0.001, 0.0, 0.0, 0.0, 0.001, 0.0, 0.0, 0.0, 0.001)",0.0,0.0,0.0,"(1e-05, 0.0, 0.0, 0.0, 1e-05, 0.0, 0.0, 0.0, 1e-05)",-0.02392578125,0.13398437500000002,9.8095703125,"(0.01, 0.0, 0.0, 0.0, 0.01, 0.0, 0.0, 0.0, 0.01)"
2025/07/11/14:06:11.549364,250,1752242771,548844766,imu_link,0.0032833714976851784,-0.006990418913904796,-0.9618466068588436,0.2734802705665351,"(0.001, 0.0, 0.0, 0.0, 0.001, 0.0, 0.0, 0.0, 0.001)",0.0,0.0,0.0,"(1e-05, 0.0, 0.0, 0.0, 1e-05, 0.0, 0.0, 0.0, 1e-05)",-0.02392578125,0.13398437500000002,9.8095703125,"(0.01, 0.0, 0.0, 0.0, 0.01, 0.0, 0.0, 0.0, 0.01)"
2025/07/11/14:06:11.591073,251,1752242771,590749006,imu_link,0.0032833714976851784,-0.006990418913904796,-0.9618466068588436,0.2734802705665351,"(0.001, 0.0, 0.0, 0.0, 0.001, 0.0, 0.0, 0.0, 0.001)",0.0,0.0,0.0,"(1e-05, 0.0, 0.0, 0.0, 1e-05, 0.0, 0.0, 0.0, 1e-05)",-0.02392578125,0.13398437500000002,9.8095703125,"(0.01, 0.0, 0.0, 0.0, 0.01, 0.0, 0.0, 0.0, 0.01)"
2025/07/11/14:06:11.640877,252,1752242771,640575954,imu_link,0.0032833714976851784,-0.006990418913904796,-0.9618466068588436,0.2734802705665351,"(0.001, 0.0, 0.0, 0.0, 0.001, 0.0, 0.0, 0.0, 0.001)",0.0,0.0,0.0,"(1e-05, 0.0, 0.0, 0.0, 1e-05, 0.0, 0.0, 0.0, 1e-05)",-0.02392578125,0.13398437500000002,9.8095703125,"(0.01, 0.0, 0.0, 0.0, 0.01, 0.0, 0.0, 0.0, 0.01)"
2025/07/11/14:06:11.649319,253,1752242771,648858307,imu_link,0.0032833714976851784,-0.006990418913904796,-0.9618466068588436,0.2734802705665351,"(0.001, 0.0, 0.0, 0.0, 0.001, 0.0, 0.0, 0.0, 0.001)",0.0,0.0,0.0,"(1e-05, 0.0, 0.0, 0.0, 1e-05, 0.0, 0.0, 0.0, 1e-05)",-0.02392578125,0.13398437500000002,9.8095703125,"(0.01, 0.0, 0.0, 0.0, 0.01, 0.0, 0.0, 0.0, 0.01)"
2025/07/11/14:06:11.696399,254,1752242771,690822831,imu_link,0.0032833714976851784,-0.006990418913904796,-0.9618466068588436,0.2734802705665351,"(0.001, 0.0, 0.0, 0.0, 0.001, 0.0, 0.0, 0.0, 0.001)",0.0,0.0,0.0,"(1e-05, 0.0, 0.0, 0.0, 1e-05, 0.0, 0.0, 0.0, 1e-05)",-0.02392578125,0.13398437500000002,9.8095703125,"(0.01, 0.0, 0.0, 0.0, 0.01, 0.0, 0.0, 0.0, 0.01)"
2025/07/11/14:06:11.741292,255,1752242771,740987083,imu_link,0.0032833714976851784,-0.006990418913904796,-0.9618466068588436,0.2734802705665351,"(0.001, 0.0, 0.0, 0.0, 0.001, 0.0, 0.0, 0.0, 0.001)",0.0,0.0,0.0,"(1e-05, 0.0, 0.0, 0.0, 1e-05, 0.0, 0.0, 0.0, 1e-05)",-0.02392578125,0.13398437500000002,9.8095703125,"(0.01, 0.0, 0.0, 0.0, 0.01, 0.0, 0.0, 0.0, 0.01)"
2025/07/11/14:06:11.749016,256,1752242771,748813129,imu_link,0.0032833714976851784,-0.006990418913904796,-0.9618466068588436,0.2734802705665351,"(0.001, 0.0, 0.0, 0.0, 0.001, 0.0, 0.0, 0.0, 0.001)",0.0,0.0,0.0,"(1e-05, 0.0, 0.0, 0.0, 1e-05, 0.0, 0.0, 0.0, 1e-05)",-0.02392578125,0.13398437500000002,9.8095703125,"(0.01, 0.0, 0.0, 0.0, 0.01, 0.0, 0.0, 0.0, 0.01)"
2025/07/11/14:06:11.791707,257,1752242771,791343846,imu_link,0.0032833714976851784,-0.006990418913904796,-0.9618466068588436,0.2734802705665351,"(0.001, 0.0, 0.0, 0.0, 0.001, 0.0, 0.0, 0.0, 0.001)",0.0,0.0,0.0,"(1e-05, 0.0, 0.0, 0.0, 1e-05, 0.0, 0.0, 0.0, 1e-05)",-0.02392578125,0.13398437500000002,9.80478515625,"(0.01, 0.0, 0.0, 0.0, 0.01, 0.0, 0.0, 0.0, 0.01)"
2025/07/11/14:06:11.842069,258,1752242771,841776962,imu_link,0.0032833714976851784,-0.006990418913904796,-0.9618466068588436,0.2734802705665351,"(0.001, 0.0, 0.0, 0.0, 0.001, 0.0, 0.0, 0.0, 0.001)",0.0,0.0,0.0,"(1e-05, 0.0, 0.0, 0.0, 1e-05, 0.0, 0.0, 0.0, 1e-05)",-0.02392578125,0.13398437500000002,9.80478515625,"(0.01, 0.0, 0.0, 0.0, 0.01, 0.0, 0.0, 0.0, 0.01)"
2025/07/11/14:06:11.849305,259,1752242771,848866104,imu_link,0.0032833714976851784,-0.006990418913904796,-0.9618466068588436,0.2734802705665351,"(0.001, 0.0, 0.0, 0.0, 0.001, 0.0, 0.0, 0.0, 0.001)",0.0,0.0,0.0,"(1e-05, 0.0, 0.0, 0.0, 1e-05, 0.0, 0.0, 0.0, 1e-05)",-0.02392578125,0.13398437500000002,9.80478515625,"(0.01, 0.0, 0.0, 0.0, 0.01, 0.0, 0.0, 0.0, 0.01)"
2025/07/11/14:06:11.891902,260,1752242771,891700512,imu_link,0.0032833714976851784,-0.006990418913904796,-0.9618466068588436,0.2734802705665351,"(0.001, 0.0, 0.0, 0.0, 0.001, 0.0, 0.0, 0.0, 0.001)",0.0,0.0,0.0,"(1e-05, 0.0, 0.0, 0.0, 1e-05, 0.0, 0.0, 0.0, 1e-05)",-0.02392578125,0.13398437500000002,9.8095703125,"(0.01, 0.0, 0.0, 0.0, 0.01, 0.0, 0.0, 0.0, 0.01)"
2025/07/11/14:06:11.942113,261,1752242771,941919606,imu_link,0.0032833714976851784,-0.006990418913904796,-0.9618466068588436,0.2734802705665351,"(0.001, 0.0, 0.0, 0.0, 0.001, 0.0, 0.0, 0.0, 0.001)",0.0,0.0,0.0,"(1e-05, 0.0, 0.0, 0.0, 1e-05, 0.0, 0.0, 0.0, 1e-05)",-0.02392578125,0.13398437500000002,9.8095703125,"(0.01, 0.0, 0.0, 0.0, 0.01, 0.0, 0.0, 0.0, 0.01)"
2025/07/11/14:06:11.948912,262,1752242771,948813893,imu_link,0.0032833714976851784,-0.006990418913904796,-0.9618466068588436,0.2734802705665351,"(0.001, 0.0, 0.0, 0.0, 0.001, 0.0, 0.0, 0.0, 0.001)",0.0,0.0,0.0,"(1e-05, 0.0, 0.0, 0.0, 1e-05, 0.0, 0.0, 0.0, 1e-05)",-0.02392578125,0.13398437500000002,9.8095703125,"(0.01, 0.0, 0.0, 0.0, 0.01, 0.0, 0.0, 0.0, 0.01)"
2025/07/11/14:06:11.992956,263,1752242771,992382769,imu_link,0.0032833714976851784,-0.006990418913904796,-0.9618466068588436,0.2734802705665351,"(0.001, 0.0, 0.0, 0.0, 0.001, 0.0, 0.0, 0.0, 0.001)",0.0,0.0,0.0,"(1e-05, 0.0, 0.0, 0.0, 1e-05, 0.0, 0.0, 0.0, 1e-05)",-0.02392578125,0.13398437500000002,9.8095703125,"(0.01, 0.0, 0.0, 0.0, 0.01, 0.0, 0.0, 0.0, 0.01)"
2025/07/11/14:06:12.043092,264,1752242772,42673499,imu_link,0.0032833714976851784,-0.006990418913904796,-0.9618466068588436,0.2734802705665351,"(0.001, 0.0, 0.0, 0.0, 0.001, 0.0, 0.0, 0.0, 0.001)",0.0,0.0,0.0,"(1e-05, 0.0, 0.0, 0.0, 1e-05, 0.0, 0.0, 0.0, 1e-05)",-0.02392578125,0.13398437500000002,9.80478515625,"(0.01, 0.0, 0.0, 0.0, 0.01, 0.0, 0.0, 0.0, 0.01)"
2025/07/11/14:06:12.049348,265,1752242772,48978249,imu_link,0.0032833714976851784,-0.006990418913904796,-0.9618466068588436,0.2734802705665351,"(0.001, 0.0, 0.0, 0.0, 0.001, 0.0, 0.0, 0.0, 0.001)",0.0,0.0,0.0,"(1e-05, 0.0, 0.0, 0.0, 1e-05, 0.0, 0.0, 0.0, 1e-05)",-0.02392578125,0.13398437500000002,9.80478515625,"(0.01, 0.0, 0.0, 0.0, 0.01, 0.0, 0.0, 0.0, 0.01)"
2025/07/11/14:06:12.092971,266,1752242772,92746300,imu_link,0.0032833714976851784,-0.006990418913904796,-0.9618466068588436,0.2734802705665351,"(0.001, 0.0, 0.0, 0.0, 0.001, 0.0, 0.0, 0.0, 0.001)",0.0,0.0,0.0,"(1e-05, 0.0, 0.0, 0.0, 1e-05, 0.0, 0.0, 0.0, 1e-05)",-0.02392578125,0.13398437500000002,9.80478515625,"(0.01, 0.0, 0.0, 0.0, 0.01, 0.0, 0.0, 0.0, 0.01)"
2025/07/11/14:06:12.143481,267,1752242772,143097093,imu_link,0.0032964812899626116,-0.007036526849313018,-0.9618462706547037,0.2734801128576665,"(0.001, 0.0, 0.0, 0.0, 0.001, 0.0, 0.0, 0.0, 0.001)",0.0,0.0,0.0,"(1e-05, 0.0, 0.0, 0.0, 1e-05, 0.0, 0.0, 0.0, 1e-05)",-0.02392578125,0.13398437500000002,9.8095703125,"(0.01, 0.0, 0.0, 0.0, 0.01, 0.0, 0.0, 0.0, 0.01)"
2025/07/11/14:06:12.149218,268,1752242772,148849205,imu_link,0.0032964812899626116,-0.007036526849313018,-0.9618462706547037,0.2734801128576665,"(0.001, 0.0, 0.0, 0.0, 0.001, 0.0, 0.0, 0.0, 0.001)",0.0,0.0,0.0,"(1e-05, 0.0, 0.0, 0.0, 1e-05, 0.0, 0.0, 0.0, 1e-05)",-0.02392578125,0.13398437500000002,9.8095703125,"(0.01, 0.0, 0.0, 0.0, 0.01, 0.0, 0.0, 0.0, 0.01)"
2025/07/11/14:06:12.193610,269,1752242772,193296852,imu_link,0.0032964812899626116,-0.007036526849313018,-0.9618462706547037,0.2734801128576665,"(0.001, 0.0, 0.0, 0.0, 0.001, 0.0, 0.0, 0.0, 0.001)",0.0,0.0,0.0,"(1e-05, 0.0, 0.0, 0.0, 1e-05, 0.0, 0.0, 0.0, 1e-05)",-0.019140625,0.13398437500000002,9.8095703125,"(0.01, 0.0, 0.0, 0.0, 0.01, 0.0, 0.0, 0.0, 0.01)"
2025/07/11/14:06:12.244006,270,1752242772,243593593,imu_link,0.0032964812899626116,-0.007036526849313018,-0.9618462706547037,0.2734801128576665,"(0.001, 0.0, 0.0, 0.0, 0.001, 0.0, 0.0, 0.0, 0.001)",0.0,0.0,0.0,"(1e-05, 0.0, 0.0, 0.0, 1e-05, 0.0, 0.0, 0.0, 1e-05)",-0.02392578125,0.13398437500000002,9.80478515625,"(0.01, 0.0, 0.0, 0.0, 0.01, 0.0, 0.0, 0.0, 0.01)"
2025/07/11/14:06:12.249274,271,1752242772,248861436,imu_link,0.0032964812899626116,-0.007036526849313018,-0.9618462706547037,0.2734801128576665,"(0.001, 0.0, 0.0, 0.0, 0.001, 0.0, 0.0, 0.0, 0.001)",0.0,0.0,0.0,"(1e-05, 0.0, 0.0, 0.0, 1e-05, 0.0, 0.0, 0.0, 1e-05)",-0.02392578125,0.13398437500000002,9.80478515625,"(0.01, 0.0, 0.0, 0.0, 0.01, 0.0, 0.0, 0.0, 0.01)"
2025/07/11/14:06:12.294552,272,1752242772,293880817,imu_link,0.0032964812899626116,-0.007036526849313018,-0.9618462706547037,0.2734801128576665,"(0.001, 0.0, 0.0, 0.0, 0.001, 0.0, 0.0, 0.0, 0.001)",0.0,0.0,0.0,"(1e-05, 0.0, 0.0, 0.0, 1e-05, 0.0, 0.0, 0.0, 1e-05)",-0.02392578125,0.13398437500000002,9.8095703125,"(0.01, 0.0, 0.0, 0.0, 0.01, 0.0, 0.0, 0.0, 0.01)"
2025/07/11/14:06:12.344543,273,1752242772,344143765,imu_link,0.0032964812899626116,-0.007036526849313018,-0.9618462706547037,0.2734801128576665,"(0.001, 0.0, 0.0, 0.0, 0.001, 0.0, 0.0, 0.0, 0.001)",0.0,0.0,0.0,"(1e-05, 0.0, 0.0, 0.0, 1e-05, 0.0, 0.0, 0.0, 1e-05)",-0.02392578125,0.13398437500000002,9.80478515625,"(0.01, 0.0, 0.0, 0.0, 0.01, 0.0, 0.0, 0.0, 0.01)"
2025/07/11/14:06:12.349281,274,1752242772,348844282,imu_link,0.0032964812899626116,-0.007036526849313018,-0.9618462706547037,0.2734801128576665,"(0.001, 0.0, 0.0, 0.0, 0.001, 0.0, 0.0, 0.0, 0.001)",0.0,0.0,0.0,"(1e-05, 0.0, 0.0, 0.0, 1e-05, 0.0, 0.0, 0.0, 1e-05)",-0.02392578125,0.13398437500000002,9.80478515625,"(0.01, 0.0, 0.0, 0.0, 0.01, 0.0, 0.0, 0.0, 0.01)"
2025/07/11/14:06:12.394871,275,1752242772,394480201,imu_link,0.0032964812899626116,-0.007036526849313018,-0.9618462706547037,0.2734801128576665,"(0.001, 0.0, 0.0, 0.0, 0.001, 0.0, 0.0, 0.0, 0.001)",0.0,0.0,0.0,"(1e-05, 0.0, 0.0, 0.0, 1e-05, 0.0, 0.0, 0.0, 1e-05)",-0.02392578125,0.13398437500000002,9.80478515625,"(0.01, 0.0, 0.0, 0.0, 0.01, 0.0, 0.0, 0.0, 0.01)"
2025/07/11/14:06:12.445033,276,1752242772,444645085,imu_link,0.0032964812899626116,-0.007036526849313018,-0.9618462706547037,0.2734801128576665,"(0.001, 0.0, 0.0, 0.0, 0.001, 0.0, 0.0, 0.0, 0.001)",0.0,0.0,0.0,"(1e-05, 0.0, 0.0, 0.0, 1e-05, 0.0, 0.0, 0.0, 1e-05)",-0.02392578125,0.13876953125000002,9.8095703125,"(0.01, 0.0, 0.0, 0.0, 0.01, 0.0, 0.0, 0.0, 0.01)"
2025/07/11/14:06:12.449429,277,1752242772,448854630,imu_link,0.0032964812899626116,-0.007036526849313018,-0.9618462706547037,0.2734801128576665,"(0.001, 0.0, 0.0, 0.0, 0.001, 0.0, 0.0, 0.0, 0.001)",0.0,0.0,0.0,"(1e-05, 0.0, 0.0, 0.0, 1e-05, 0.0, 0.0, 0.0, 1e-05)",-0.02392578125,0.13876953125000002,9.8095703125,"(0.01, 0.0, 0.0, 0.0, 0.01, 0.0, 0.0, 0.0, 0.01)"
2025/07/11/14:06:12.495318,278,1752242772,494950032,imu_link,0.0032964812899626116,-0.007036526849313018,-0.9618462706547037,0.2734801128576665,"(0.001, 0.0, 0.0, 0.0, 0.001, 0.0, 0.0, 0.0, 0.001)",0.0,0.0,0.0,"(1e-05, 0.0, 0.0, 0.0, 1e-05, 0.0, 0.0, 0.0, 1e-05)",0.00478515625,0.095703125,9.6373046875,"(0.01, 0.0, 0.0, 0.0, 0.01, 0.0, 0.0, 0.0, 0.01)"
2025/07/11/14:06:12.545938,279,1752242772,545570001,imu_link,0.0032833714976851784,-0.006990418913904796,-0.9618466068588436,0.2734802705665351,"(0.001, 0.0, 0.0, 0.0, 0.001, 0.0, 0.0, 0.0, 0.001)",-0.006391586507161458,0.003195793253580729,0.0,"(1e-05, 0.0, 0.0, 0.0, 1e-05, 0.0, 0.0, 0.0, 1e-05)",0.4498046875,-0.4880859375,9.125292968750001,"(0.01, 0.0, 0.0, 0.0, 0.01, 0.0, 0.0, 0.0, 0.01)"
2025/07/11/14:06:12.549327,280,1752242772,548854308,imu_link,0.003473780847016585,-0.006237191327237273,-0.9616280947773643,0.2742634456609751,"(0.001, 0.0, 0.0, 0.0, 0.001, 0.0, 0.0, 0.0, 0.001)",-0.04048004787868924,0.02876213928222656,0.07243798041449653,"(1e-05, 0.0, 0.0, 0.0, 1e-05, 0.0, 0.0, 0.0, 1e-05)",0.4498046875,-0.4880859375,9.125292968750001,"(0.01, 0.0, 0.0, 0.0, 0.01, 0.0, 0.0, 0.0, 0.01)"
2025/07/11/14:06:12.595891,281,1752242772,595430904,imu_link,0.003473780847016585,-0.006237191327237273,-0.9616280947773643,0.2742634456609751,"(0.001, 0.0, 0.0, 0.0, 0.001, 0.0, 0.0, 0.0, 0.001)",-0.04048004787868924,0.02876213928222656,0.07243798041449653,"(1e-05, 0.0, 0.0, 0.0, 1e-05, 0.0, 0.0, 0.0, 1e-05)",0.46416015625,-1.894921875,10.2306640625,"(0.01, 0.0, 0.0, 0.0, 0.01, 0.0, 0.0, 0.0, 0.01)"
2025/07/11/14:06:12.646508,282,1752242772,645995679,imu_link,0.0037766833582348145,-0.003316262394320607,-0.962295122715073,0.27196109255797274,"(0.001, 0.0, 0.0, 0.0, 0.001, 0.0, 0.0, 0.0, 0.001)",-0.0937432687717014,0.06604639390733508,-0.19920444613986546,"(1e-05, 0.0, 0.0, 0.0, 1e-05, 0.0, 0.0, 0.0, 1e-05)",-0.41630859375,-1.2872070312500001,10.52255859375,"(0.01, 0.0, 0.0, 0.0, 0.01, 0.0, 0.0, 0.0, 0.01)"
2025/07/11/14:06:12.649204,283,1752242772,648857743,imu_link,0.003160853712988241,-0.0013669721625677307,-0.9641035517146453,0.2655042032852171,"(0.001, 0.0, 0.0, 0.0, 0.001, 0.0, 0.0, 0.0, 0.001)",0.014913701850043402,-0.03302319695366754,-0.2524676670328776,"(1e-05, 0.0, 0.0, 0.0, 1e-05, 0.0, 0.0, 0.0, 1e-05)",-0.41630859375,-1.2872070312500001,10.52255859375,"(0.01, 0.0, 0.0, 0.0, 0.01, 0.0, 0.0, 0.0, 0.01)"
2025/07/11/14:06:12.696301,284,1752242772,695936642,imu_link,0.003160853712988241,-0.0013669721625677307,-0.9641035517146453,0.2655042032852171,"(0.001, 0.0, 0.0, 0.0, 0.001, 0.0, 0.0, 0.0, 0.001)",0.014913701850043402,-0.03302319695366754,-0.2524676670328776,"(1e-05, 0.0, 0.0, 0.0, 1e-05, 0.0, 0.0, 0.0, 1e-05)",-0.7943359375000001,-0.36845703125,9.479394531250001,"(0.01, 0.0, 0.0, 0.0, 0.01, 0.0, 0.0, 0.0, 0.01)"
2025/07/11/14:06:12.746577,285,1752242772,746209819,imu_link,0.0032168297784448754,-0.0010706316295032788,-0.9656647592778704,0.2597692792516142,"(0.001, 0.0, 0.0, 0.0, 0.001, 0.0, 0.0, 0.0, 0.001)",0.0543284853108724,0.006391586507161458,-0.21624867682562937,"(1e-05, 0.0, 0.0, 0.0, 1e-05, 0.0, 0.0, 0.0, 1e-05)",-0.172265625,0.10048828125,9.83349609375,"(0.01, 0.0, 0.0, 0.0, 0.01, 0.0, 0.0, 0.0, 0.01)"
2025/07/11/14:06:12.749253,286,1752242772,748869584,imu_link,0.002887266507277192,-0.0011715181246422046,-0.9668873841698721,0.2551843991519507,"(0.001, 0.0, 0.0, 0.0, 0.001, 0.0, 0.0, 0.0, 0.001)",0.034088461371527774,-0.03621899020724827,-0.20346550381130643,"(1e-05, 0.0, 0.0, 0.0, 1e-05, 0.0, 0.0, 0.0, 1e-05)",-0.172265625,0.10048828125,9.83349609375,"(0.01, 0.0, 0.0, 0.0, 0.01, 0.0, 0.0, 0.0, 0.01)"
2025/07/11/14:06:12.796998,287,1752242772,796497013,imu_link,0.002887266507277192,-0.0011715181246422046,-0.9668873841698721,0.2551843991519507,"(0.001, 0.0, 0.0, 0.0, 0.001, 0.0, 0.0, 0.0, 0.001)",0.034088461371527774,-0.03621899020724827,-0.20346550381130643,"(1e-05, 0.0, 0.0, 0.0, 1e-05, 0.0, 0.0, 0.0, 1e-05)",0.3541015625,-0.13876953125000002,9.85263671875,"(0.01, 0.0, 0.0, 0.0, 0.01, 0.0, 0.0, 0.0, 0.01)"
2025/07/11/14:06:12.847021,288,1752242772,846666205,imu_link,0.0029058833248723596,-0.0012776034730807308,-0.9680513675712457,0.2507318753467715,"(0.001, 0.0, 0.0, 0.0, 0.001, 0.0, 0.0, 0.0, 0.001)",0.03834951904296875,0.001065264417860243,-0.20879182590060763,"(1e-05, 0.0, 0.0, 0.0, 1e-05, 0.0, 0.0, 0.0, 1e-05)",0.21533203125000003,0.33974609375000003,9.63251953125,"(0.01, 0.0, 0.0, 0.0, 0.01, 0.0, 0.0, 0.0, 0.01)"
2025/07/11/14:06:12.849254,289,1752242772,848854324,imu_link,0.002808890838058493,-0.0021067783258078886,-0.9693356588785011,0.24571538829289435,"(0.001, 0.0, 0.0, 0.0, 0.001, 0.0, 0.0, 0.0, 0.001)",0.03621899020724827,-0.025566346028645832,-0.23861922960069443,"(1e-05, 0.0, 0.0, 0.0, 1e-05, 0.0, 0.0, 0.0, 1e-05)",0.21533203125000003,0.33974609375000003,9.63251953125,"(0.01, 0.0, 0.0, 0.0, 0.01, 0.0, 0.0, 0.0, 0.01)"
2025/07/11/14:06:12.897608,290,1752242772,896991359,imu_link,0.002808890838058493,-0.0021067783258078886,-0.9693356588785011,0.24571538829289435,"(0.001, 0.0, 0.0, 0.0, 0.001, 0.0, 0.0, 0.0, 0.001)",0.03621899020724827,-0.025566346028645832,-0.23861922960069443,"(1e-05, 0.0, 0.0, 0.0, 1e-05, 0.0, 0.0, 0.0, 1e-05)",0.45458984375000006,-0.10048828125,9.670800781250001,"(0.01, 0.0, 0.0, 0.0, 0.01, 0.0, 0.0, 0.0, 0.01)"
2025/07/11/14:06:12.947457,291,1752242772,947089828,imu_link,0.0027952654858646314,-0.002518732500885111,-0.9707783442064594,0.23994842966191265,"(0.001, 0.0, 0.0, 0.0, 0.001, 0.0, 0.0, 0.0, 0.001)",0.03089266811794705,0.047936898803710944,-0.2577939891221788,"(1e-05, 0.0, 0.0, 0.0, 1e-05, 0.0, 0.0, 0.0, 1e-05)",0.0861328125,0.0,9.77607421875,"(0.01, 0.0, 0.0, 0.0, 0.01, 0.0, 0.0, 0.0, 0.01)"
2025/07/11/14:06:12.949206,292,1752242772,948853821,imu_link,0.003324066416885434,-0.002750222773115506,-0.9722531807206664,0.23389129833258335,"(0.001, 0.0, 0.0, 0.0, 0.001, 0.0, 0.0, 0.0, 0.001)",0.02876213928222656,0.02769687486436632,-0.2641855756293403,"(1e-05, 0.0, 0.0, 0.0, 1e-05, 0.0, 0.0, 0.0, 1e-05)",0.0861328125,0.0,9.77607421875,"(0.01, 0.0, 0.0, 0.0, 0.01, 0.0, 0.0, 0.0, 0.01)"
2025/07/11/14:06:12.998099,293,1752242772,997507727,imu_link,0.003324066416885434,-0.002750222773115506,-0.9722531807206664,0.23389129833258335,"(0.001, 0.0, 0.0, 0.0, 0.001, 0.0, 0.0, 0.0, 0.001)",0.02876213928222656,0.02769687486436632,-0.2641855756293403,"(1e-05, 0.0, 0.0, 0.0, 1e-05, 0.0, 0.0, 0.0, 1e-05)",-0.24404296875,0.0,10.010546875000001,"(0.01, 0.0, 0.0, 0.0, 0.01, 0.0, 0.0, 0.0, 0.01)"
2025/07/11/14:06:13.048355,294,1752242773,47930055,imu_link,0.003688759694279512,-0.0029270999557685293,-0.9736468421071399,0.2280123943836402,"(0.001, 0.0, 0.0, 0.0, 0.001, 0.0, 0.0, 0.0, 0.001)",-0.008522115342881944,-0.005326322089301215,-0.26098978237575954,"(1e-05, 0.0, 0.0, 0.0, 1e-05, 0.0, 0.0, 0.0, 1e-05)",-0.33017578125,0.19140625,9.61337890625,"(0.01, 0.0, 0.0, 0.0, 0.01, 0.0, 0.0, 0.0, 0.01)"
2025/07/11/14:06:13.049217,295,1752242773,48851115,imu_link,0.004293196806404021,-0.0032975153358941267,-0.9748970122879128,0.22259045416614825,"(0.001, 0.0, 0.0, 0.0, 0.001, 0.0, 0.0, 0.0, 0.001)",0.03302319695366754,0.02130528835720486,-0.26098978237575954,"(1e-05, 0.0, 0.0, 0.0, 1e-05, 0.0, 0.0, 0.0, 1e-05)",-0.33017578125,0.19140625,9.61337890625,"(0.01, 0.0, 0.0, 0.0, 0.01, 0.0, 0.0, 0.0, 0.01)"
2025/07/11/14:06:13.098422,296,1752242773,98002165,imu_link,0.004293196806404021,-0.0032975153358941267,-0.9748970122879128,0.22259045416614825,"(0.001, 0.0, 0.0, 0.0, 0.001, 0.0, 0.0, 0.0, 0.001)",0.03302319695366754,0.02130528835720486,-0.26098978237575954,"(1e-05, 0.0, 0.0, 0.0, 1e-05, 0.0, 0.0, 0.0, 1e-05)",-0.516796875,0.49287109375000004,9.77607421875,"(0.01, 0.0, 0.0, 0.0, 0.01, 0.0, 0.0, 0.0, 0.01)"
2025/07/11/14:06:13.148633,297,1752242773,148166169,imu_link,0.004699597675728501,-0.00391598427980834,-0.976210131619429,0.21674030029596164,"(0.001, 0.0, 0.0, 0.0, 0.001, 0.0, 0.0, 0.0, 0.001)",0.02130528835720486,-0.009587379760742188,-0.28336033515082465,"(1e-05, 0.0, 0.0, 0.0, 1e-05, 0.0, 0.0, 0.0, 1e-05)",0.47373046875,-0.02392578125,9.6564453125,"(0.01, 0.0, 0.0, 0.0, 0.01, 0.0, 0.0, 0.0, 0.01)"
2025/07/11/14:06:13.149127,298,1752242773,148869149,imu_link,0.004699597675728501,-0.00391598427980834,-0.976210131619429,0.21674030029596164,"(0.001, 0.0, 0.0, 0.0, 0.001, 0.0, 0.0, 0.0, 0.001)",0.009587379760742188,0.017044230685763887,-0.2812298063151042,"(1e-05, 0.0, 0.0, 0.0, 1e-05, 0.0, 0.0, 0.0, 1e-05)",0.47373046875,-0.02392578125,9.6564453125,"(0.01, 0.0, 0.0, 0.0, 0.01, 0.0, 0.0, 0.0, 0.01)"
2025/07/11/14:06:13.198936,299,1752242773,198425331,imu_link,0.004264439545154679,-0.004081930542697741,-0.9774921812949683,0.21088904169163236,"(0.001, 0.0, 0.0, 0.0, 0.001, 0.0, 0.0, 0.0, 0.001)",0.009587379760742188,0.017044230685763887,-0.2812298063151042,"(1e-05, 0.0, 0.0, 0.0, 1e-05, 0.0, 0.0, 0.0, 1e-05)",-0.54072265625,0.5120117187500001,9.790429687500001,"(0.01, 0.0, 0.0, 0.0, 0.01, 0.0, 0.0, 0.0, 0.01)"
2025/07/11/14:06:13.248975,300,1752242773,248623578,imu_link,0.005194216649159625,-0.004256287489438323,-0.9790185524995082,0.20366044778497425,"(0.001, 0.0, 0.0, 0.0, 0.001, 0.0, 0.0, 0.0, 0.001)",-0.029827403700086803,-0.02876213928222656,-0.3494067290581597,"(1e-05, 0.0, 0.0, 0.0, 1e-05, 0.0, 0.0, 0.0, 1e-05)",0.30146484375000004,-0.25361328125000004,10.04404296875,"(0.01, 0.0, 0.0, 0.0, 0.01, 0.0, 0.0, 0.0, 0.01)"
2025/07/11/14:06:13.249002,301,1752242773,248867526,imu_link,0.005194216649159625,-0.004256287489438323,-0.9790185524995082,0.20366044778497425,"(0.001, 0.0, 0.0, 0.0, 0.001, 0.0, 0.0, 0.0, 0.001)",0.0543284853108724,0.0468716343858507,-0.3781688683403863,"(1e-05, 0.0, 0.0, 0.0, 1e-05, 0.0, 0.0, 0.0, 1e-05)",0.30146484375000004,-0.25361328125000004,10.04404296875,"(0.01, 0.0, 0.0, 0.0, 0.01, 0.0, 0.0, 0.0, 0.01)"
2025/07/11/14:06:13.299360,302,1752242773,298889022,imu_link,0.00512855118564949,-0.004649007665551056,-0.9807475442952008,0.19515721623705065,"(0.001, 0.0, 0.0, 0.0, 0.001, 0.0, 0.0, 0.0, 0.001)",0.0543284853108724,0.0468716343858507,-0.3781688683403863,"(1e-05, 0.0, 0.0, 0.0, 1e-05, 0.0, 0.0, 0.0, 1e-05)",-0.033496093750000004,0.19619140625,9.718652343750001,"(0.01, 0.0, 0.0, 0.0, 0.01, 0.0, 0.0, 0.0, 0.01)"
2025/07/11/14:06:13.349372,303,1752242773,348874149,imu_link,0.005343584274046672,-0.005280745531977216,-0.9824718631272227,0.18625949102544176,"(0.001, 0.0, 0.0, 0.0, 0.001, 0.0, 0.0, 0.0, 0.001)",0.04261057671440972,0.019174759521484376,-0.3749730750868056,"(1e-05, 0.0, 0.0, 0.0, 1e-05, 0.0, 0.0, 0.0, 1e-05)",-0.033496093750000004,0.19619140625,9.718652343750001,"(0.01, 0.0, 0.0, 0.0, 0.01, 0.0, 0.0, 0.0, 0.01)"
2025/07/11/14:06:13.349412,304,1752242773,349086217,imu_link,0.005343584274046672,-0.005280745531977216,-0.9824718631272227,0.18625949102544176,"(0.001, 0.0, 0.0, 0.0, 0.001, 0.0, 0.0, 0.0, 0.001)",0.04261057671440972,0.019174759521484376,-0.3749730750868056,"(1e-05, 0.0, 0.0, 0.0, 1e-05, 0.0, 0.0, 0.0, 1e-05)",0.03828125,0.28232421875,9.666015625,"(0.01, 0.0, 0.0, 0.0, 0.01, 0.0, 0.0, 0.0, 0.01)"
2025/07/11/14:06:13.399938,305,1752242773,399371788,imu_link,0.005829988285134514,-0.005570775206237979,-0.9840134474874325,0.17791153100373897,"(0.001, 0.0, 0.0, 0.0, 0.001, 0.0, 0.0, 0.0, 0.001)",0.0,0.03834951904296875,-0.3387540848795573,"(1e-05, 0.0, 0.0, 0.0, 1e-05, 0.0, 0.0, 0.0, 1e-05)",-0.40673828125000006,0.30146484375000004,9.78564453125,"(0.01, 0.0, 0.0, 0.0, 0.01, 0.0, 0.0, 0.0, 0.01)"
2025/07/11/14:06:13.449278,306,1752242773,448869741,imu_link,0.0067851560700045565,-0.005199749527138642,-0.9853541866350015,0.17030575780881732,"(0.001, 0.0, 0.0, 0.0, 0.001, 0.0, 0.0, 0.0, 0.001)",-0.03302319695366754,0.02130528835720486,-0.33023196953667533,"(1e-05, 0.0, 0.0, 0.0, 1e-05, 0.0, 0.0, 0.0, 1e-05)",-0.40673828125000006,0.30146484375000004,9.78564453125,"(0.01, 0.0, 0.0, 0.0, 0.01, 0.0, 0.0, 0.0, 0.01)"
2025/07/11/14:06:13.449851,307,1752242773,449592288,imu_link,0.0067851560700045565,-0.005199749527138642,-0.9853541866350015,0.17030575780881732,"(0.001, 0.0, 0.0, 0.0, 0.001, 0.0, 0.0, 0.0, 0.001)",-0.03302319695366754,0.02130528835720486,-0.33023196953667533,"(1e-05, 0.0, 0.0, 0.0, 1e-05, 0.0, 0.0, 0.0, 1e-05)",-0.0095703125,0.06699218750000001,10.0009765625,"(0.01, 0.0, 0.0, 0.0, 0.01, 0.0, 0.0, 0.0, 0.01)"
2025/07/11/14:06:13.500529,308,1752242773,500021409,imu_link,0.00711658977916526,-0.0048496392107447404,-0.986615375833144,0.16283714354859286,"(0.001, 0.0, 0.0, 0.0, 0.001, 0.0, 0.0, 0.0, 0.001)",0.003195793253580729,0.02769687486436632,-0.32810144070095487,"(1e-05, 0.0, 0.0, 0.0, 1e-05, 0.0, 0.0, 0.0, 1e-05)",0.052636718750000006,0.028710937500000002,9.780859375,"(0.01, 0.0, 0.0, 0.0, 0.01, 0.0, 0.0, 0.0, 0.01)"
2025/07/11/14:06:13.549088,309,1752242773,548824717,imu_link,0.007718236235371072,-0.004660357724942885,-0.9878842783814928,0.15493018563846045,"(0.001, 0.0, 0.0, 0.0, 0.001, 0.0, 0.0, 0.0, 0.001)",-0.007456850925021701,0.031957932535807296,-0.34194987813313804,"(1e-05, 0.0, 0.0, 0.0, 1e-05, 0.0, 0.0, 0.0, 1e-05)",0.052636718750000006,0.028710937500000002,9.780859375,"(0.01, 0.0, 0.0, 0.0, 0.01, 0.0, 0.0, 0.0, 0.01)"
2025/07/11/14:06:13.550128,310,1752242773,550005895,imu_link,0.007718236235371072,-0.004660357724942885,-0.9878842783814928,0.15493018563846045,"(0.001, 0.0, 0.0, 0.0, 0.001, 0.0, 0.0, 0.0, 0.001)",-0.007456850925021701,0.031957932535807296,-0.34194987813313804,"(1e-05, 0.0, 0.0, 0.0, 1e-05, 0.0, 0.0, 0.0, 1e-05)",0.11005859375,-0.052636718750000006,9.933984375000001,"(0.01, 0.0, 0.0, 0.0, 0.01, 0.0, 0.0, 0.0, 0.01)"
2025/07/11/14:06:13.600887,311,1752242773,600429315,imu_link,0.008064323220089415,-0.004717638459063622,-0.9891747137661712,0.1464448572807688,"(0.001, 0.0, 0.0, 0.0, 0.001, 0.0, 0.0, 0.0, 0.001)",0.014913701850043402,-0.004261057671440972,-0.35792884440104167,"(1e-05, 0.0, 0.0, 0.0, 1e-05, 0.0, 0.0, 0.0, 1e-05)",-0.019140625,0.248828125,9.819140625000001,"(0.01, 0.0, 0.0, 0.0, 0.01, 0.0, 0.0, 0.0, 0.01)"
2025/07/11/14:06:13.649223,312,1752242773,648851787,imu_link,0.0084559327362354,-0.005172366033864823,-0.9905744804965989,0.13661604012730377,"(0.001, 0.0, 0.0, 0.0, 0.001, 0.0, 0.0, 0.0, 0.001)",0.019174759521484376,0.019174759521484376,-0.4282362959798177,"(1e-05, 0.0, 0.0, 0.0, 1e-05, 0.0, 0.0, 0.0, 1e-05)",-0.019140625,0.248828125,9.819140625000001,"(0.01, 0.0, 0.0, 0.0, 0.01, 0.0, 0.0, 0.0, 0.01)"
2025/07/11/14:06:13.650963,313,1752242773,650595061,imu_link,0.0084559327362354,-0.005172366033864823,-0.9905744804965989,0.13661604012730377,"(0.001, 0.0, 0.0, 0.0, 0.001, 0.0, 0.0, 0.0, 0.001)",0.019174759521484376,0.019174759521484376,-0.4282362959798177,"(1e-05, 0.0, 0.0, 0.0, 1e-05, 0.0, 0.0, 0.0, 1e-05)",-0.18662109375000002,0.3828125,9.78564453125,"(0.01, 0.0, 0.0, 0.0, 0.01, 0.0, 0.0, 0.0, 0.01)"
2025/07/11/14:06:13.701302,314,1752242773,700868400,imu_link,0.008660260444868865,-0.005425349536215701,-0.9920178161205094,0.12568300589551504,"(0.001, 0.0, 0.0, 0.0, 0.001, 0.0, 0.0, 0.0, 0.001)",-0.007456850925021701,0.02024002393934462,-0.4303668248155382,"(1e-05, 0.0, 0.0, 0.0, 1e-05, 0.0, 0.0, 0.0, 1e-05)",-0.095703125,0.172265625,9.795214843750001,"(0.01, 0.0, 0.0, 0.0, 0.01, 0.0, 0.0, 0.0, 0.01)"
2025/07/11/14:06:13.749239,315,1752242773,748853321,imu_link,0.009265252421736918,-0.005445650194508173,-0.9933656825305277,0.11449506872428679,"(0.001, 0.0, 0.0, 0.0, 0.001, 0.0, 0.0, 0.0, 0.001)",0.018109495103624133,0.035153725789388024,-0.4452805266655816,"(1e-05, 0.0, 0.0, 0.0, 1e-05, 0.0, 0.0, 0.0, 1e-05)",-0.095703125,0.172265625,9.795214843750001,"(0.01, 0.0, 0.0, 0.0, 0.01, 0.0, 0.0, 0.0, 0.01)"
2025/07/11/14:06:13.751442,316,1752242773,751138843,imu_link,0.009265252421736918,-0.005445650194508173,-0.9933656825305277,0.11449506872428679,"(0.001, 0.0, 0.0, 0.0, 0.001, 0.0, 0.0, 0.0, 0.001)",0.018109495103624133,0.035153725789388024,-0.4452805266655816,"(1e-05, 0.0, 0.0, 0.0, 1e-05, 0.0, 0.0, 0.0, 1e-05)",0.19619140625,0.16269531250000002,9.862207031250001,"(0.01, 0.0, 0.0, 0.0, 0.01, 0.0, 0.0, 0.0, 0.01)"
2025/07/11/14:06:13.801907,317,1752242773,801352630,imu_link,0.009431656777630523,-0.005914434373496573,-0.9946233157761969,0.10295884144081147,"(0.001, 0.0, 0.0, 0.0, 0.001, 0.0, 0.0, 0.0, 0.001)",0.031957932535807296,0.018109495103624133,-0.4580636996799045,"(1e-05, 0.0, 0.0, 0.0, 1e-05, 0.0, 0.0, 0.0, 1e-05)",-0.0765625,0.28232421875,9.77607421875,"(0.01, 0.0, 0.0, 0.0, 0.01, 0.0, 0.0, 0.0, 0.01)"
2025/07/11/14:06:13.849645,318,1752242773,849238635,imu_link,0.009699740192544945,-0.006626487027718403,-0.9958272960758243,0.09049862485243264,"(0.001, 0.0, 0.0, 0.0, 0.001, 0.0, 0.0, 0.0, 0.001)",0.035153725789388024,0.008522115342881944,-0.4825647812906901,"(1e-05, 0.0, 0.0, 0.0, 1e-05, 0.0, 0.0, 0.0, 1e-05)",-0.0765625,0.28232421875,9.77607421875,"(0.01, 0.0, 0.0, 0.0, 0.01, 0.0, 0.0, 0.0, 0.01)"
2025/07/11/14:06:13.851789,319,1752242773,851553803,imu_link,0.009699740192544945,-0.006626487027718403,-0.9958272960758243,0.09049862485243264,"(0.001, 0.0, 0.0, 0.0, 0.001, 0.0, 0.0, 0.0, 0.001)",0.035153725789388024,0.008522115342881944,-0.4825647812906901,"(1e-05, 0.0, 0.0, 0.0, 1e-05, 0.0, 0.0, 0.0, 1e-05)",0.10048828125,0.6029296875000001,9.622949218750001,"(0.01, 0.0, 0.0, 0.0, 0.01, 0.0, 0.0, 0.0, 0.01)"
2025/07/11/14:06:13.902190,320,1752242773,901827832,imu_link,0.009648283156022466,-0.007232136646060433,-0.9969341007977267,0.077311095570443,"(0.001, 0.0, 0.0, 0.0, 0.001, 0.0, 0.0, 0.0, 0.001)",-0.003195793253580729,0.0,-0.508131127319336,"(1e-05, 0.0, 0.0, 0.0, 1e-05, 0.0, 0.0, 0.0, 1e-05)",0.04306640625,0.11005859375,9.747363281250001,"(0.01, 0.0, 0.0, 0.0, 0.01, 0.0, 0.0, 0.0, 0.01)"
2025/07/11/14:06:13.949335,321,1752242773,948898677,imu_link,0.00989876340045826,-0.00686328147790269,-0.9979155889434241,0.06339863716355135,"(0.001, 0.0, 0.0, 0.0, 0.001, 0.0, 0.0, 0.0, 0.001)",-0.02769687486436632,0.009587379760742188,-0.5198490359157987,"(1e-05, 0.0, 0.0, 0.0, 1e-05, 0.0, 0.0, 0.0, 1e-05)",0.04306640625,0.11005859375,9.747363281250001,"(0.01, 0.0, 0.0, 0.0, 0.01, 0.0, 0.0, 0.0, 0.01)"
2025/07/11/14:06:13.952281,322,1752242773,952027292,imu_link,0.00989876340045826,-0.00686328147790269,-0.9979155889434241,0.06339863716355135,"(0.001, 0.0, 0.0, 0.0, 0.001, 0.0, 0.0, 0.0, 0.001)",-0.02769687486436632,0.009587379760742188,-0.5198490359157987,"(1e-05, 0.0, 0.0, 0.0, 1e-05, 0.0, 0.0, 0.0, 1e-05)",-0.14833984375,0.18662109375000002,10.0392578125,"(0.01, 0.0, 0.0, 0.0, 0.01, 0.0, 0.0, 0.0, 0.01)"
2025/07/11/14:06:14.002635,323,1752242774,2290331,imu_link,0.010497852116667683,-0.006638956442789199,-0.998740678069611,0.048608407990194905,"(0.001, 0.0, 0.0, 0.0, 0.001, 0.0, 0.0, 0.0, 0.001)",-0.017044230685763887,0.04154531229654948,-0.5571332905409071,"(1e-05, 0.0, 0.0, 0.0, 1e-05, 0.0, 0.0, 0.0, 1e-05)",-0.26318359375,0.29189453125000003,9.814355468750001,"(0.01, 0.0, 0.0, 0.0, 0.01, 0.0, 0.0, 0.0, 0.01)"
2025/07/11/14:06:14.049254,324,1752242774,48855847,imu_link,0.011009594369265368,-0.006639930514521792,-0.999379216055825,0.03280065045438785,"(0.001, 0.0, 0.0, 0.0, 0.001, 0.0, 0.0, 0.0, 0.001)",0.007456850925021701,0.02450108161078559,-0.5805691077338324,"(1e-05, 0.0, 0.0, 0.0, 1e-05, 0.0, 0.0, 0.0, 1e-05)",-0.26318359375,0.29189453125000003,9.814355468750001,"(0.01, 0.0, 0.0, 0.0, 0.01, 0.0, 0.0, 0.0, 0.01)"
2025/07/11/14:06:14.052852,325,1752242774,52557429,imu_link,0.011009594369265368,-0.006639930514521792,-0.999379216055825,0.03280065045438785,"(0.001, 0.0, 0.0, 0.0, 0.001, 0.0, 0.0, 0.0, 0.001)",0.007456850925021701,0.02450108161078559,-0.5805691077338324,"(1e-05, 0.0, 0.0, 0.0, 1e-05, 0.0, 0.0, 0.0, 1e-05)",0.34453125,-0.2009765625,9.694726562500001,"(0.01, 0.0, 0.0, 0.0, 0.01, 0.0, 0.0, 0.0, 0.01)"
2025/07/11/14:06:14.103225,326,1752242774,102828915,imu_link,0.011326349569482558,-0.0065732907807724145,-0.9997803314762126,0.016364426267228272,"(0.001, 0.0, 0.0, 0.0, 0.001, 0.0, 0.0, 0.0, 0.001)",-0.022370552775065104,0.006391586507161458,-0.5976133384195964,"(1e-05, 0.0, 0.0, 0.0, 1e-05, 0.0, 0.0, 0.0, 1e-05)",0.014355468750000001,-0.03828125,10.154101562500001,"(0.01, 0.0, 0.0, 0.0, 0.01, 0.0, 0.0, 0.0, 0.01)"
2025/07/11/14:06:14.149316,327,1752242774,148882629,imu_link,-0.012503311807983147,0.006629115621196884,0.9998990955754596,0.0012331615023761663,"(0.001, 0.0, 0.0, 0.0, 0.001, 0.0, 0.0, 0.0, 0.001)",-0.02769687486436632,0.015978966267903648,-0.6295712709554037,"(1e-05, 0.0, 0.0, 0.0, 1e-05, 0.0, 0.0, 0.0, 1e-05)",0.014355468750000001,-0.03828125,10.154101562500001,"(0.01, 0.0, 0.0, 0.0, 0.01, 0.0, 0.0, 0.0, 0.01)"
2025/07/11/14:06:14.153291,328,1752242774,153038103,imu_link,-0.012503311807983147,0.006629115621196884,0.9998990955754596,0.0012331615023761663,"(0.001, 0.0, 0.0, 0.0, 0.001, 0.0, 0.0, 0.0, 0.001)",-0.02769687486436632,0.015978966267903648,-0.6295712709554037,"(1e-05, 0.0, 0.0, 0.0, 1e-05, 0.0, 0.0, 0.0, 1e-05)",-0.08134765625000001,-0.0765625,10.02490234375,"(0.01, 0.0, 0.0, 0.0, 0.01, 0.0, 0.0, 0.0, 0.01)"
2025/07/11/14:06:14.203705,329,1752242774,203311161,imu_link,-0.012772303229868455,0.006339679485718796,0.9997036702678475,0.01972937878437909,"(0.001, 0.0, 0.0, 0.0, 0.001, 0.0, 0.0, 0.0, 0.001)",0.006391586507161458,0.02024002393934462,-0.6519418237304687,"(1e-05, 0.0, 0.0, 0.0, 1e-05, 0.0, 0.0, 0.0, 1e-05)",-0.38759765625000003,0.27275390625,9.886132812500001,"(0.01, 0.0, 0.0, 0.0, 0.01, 0.0, 0.0, 0.0, 0.01)"
2025/07/11/14:06:14.249462,330,1752242774,249045827,imu_link,-0.013268602800195095,0.006700790153454384,0.9991400432235346,0.03870681617394259,"(0.001, 0.0, 0.0, 0.0, 0.001, 0.0, 0.0, 0.0, 0.001)",-0.006391586507161458,0.02769687486436632,-0.6711165832519531,"(1e-05, 0.0, 0.0, 0.0, 1e-05, 0.0, 0.0, 0.0, 1e-05)",-0.38759765625000003,0.27275390625,9.886132812500001,"(0.01, 0.0, 0.0, 0.0, 0.01, 0.0, 0.0, 0.0, 0.01)"
2025/07/11/14:06:14.253838,331,1752242774,253553993,imu_link,-0.013268602800195095,0.006700790153454384,0.9991400432235346,0.03870681617394259,"(0.001, 0.0, 0.0, 0.0, 0.001, 0.0, 0.0, 0.0, 0.001)",-0.006391586507161458,0.02769687486436632,-0.6711165832519531,"(1e-05, 0.0, 0.0, 0.0, 1e-05, 0.0, 0.0, 0.0, 1e-05)",0.08134765625000001,-0.02392578125,9.8287109375,"(0.01, 0.0, 0.0, 0.0, 0.01, 0.0, 0.0, 0.0, 0.01)"
