time,.header.seq,.header.stamp.secs,.header.stamp.nsecs,.header.frame_id,.orientation.x,.orientation.y,.orientation.z,.orientation.w,.orientation_covariance,.angular_velocity.x,.angular_velocity.y,.angular_velocity.z,.angular_velocity_covariance,.linear_acceleration.x,.linear_acceleration.y,.linear_acceleration.z,.linear_acceleration_covariance
2025/07/11/14:07:30.923304,6,1752242850,922773201,imu_link,0.0025722210225009087,-0.009735354293210395,-0.9725801870175379,0.23234970707261118,"(0.001, 0.0, 0.0, 0.0, 0.001, 0.0, 0.0, 0.0, 0.001)",0.0,0.0,0.0,"(1e-05, 0.0, 0.0, 0.0, 1e-05, 0.0, 0.0, 0.0, 1e-05)",0.0,0.18183593750000002,9.8095703125,"(0.01, 0.0, 0.0, 0.0, 0.01, 0.0, 0.0, 0.0, 0.01)"
2025/07/11/14:07:30.973080,7,1752242850,972717238,imu_link,0.0025722210225009087,-0.009735354293210395,-0.9725801870175379,0.23234970707261118,"(0.001, 0.0, 0.0, 0.0, 0.001, 0.0, 0.0, 0.0, 0.001)",0.0,0.0,0.0,"(1e-05, 0.0, 0.0, 0.0, 1e-05, 0.0, 0.0, 0.0, 1e-05)",-0.00478515625,0.18183593750000002,9.8095703125,"(0.01, 0.0, 0.0, 0.0, 0.01, 0.0, 0.0, 0.0, 0.01)"
2025/07/11/14:07:30.993543,8,1752242850,993144115,imu_link,0.0025722210225009087,-0.009735354293210395,-0.9725801870175379,0.23234970707261118,"(0.001, 0.0, 0.0, 0.0, 0.001, 0.0, 0.0, 0.0, 0.001)",0.0,0.0,0.0,"(1e-05, 0.0, 0.0, 0.0, 1e-05, 0.0, 0.0, 0.0, 1e-05)",-0.00478515625,0.18183593750000002,9.8095703125,"(0.01, 0.0, 0.0, 0.0, 0.01, 0.0, 0.0, 0.0, 0.01)"
2025/07/11/14:07:31.023202,9,1752242851,22925622,imu_link,0.0025722210225009087,-0.009735354293210395,-0.9725801870175379,0.23234970707261118,"(0.001, 0.0, 0.0, 0.0, 0.001, 0.0, 0.0, 0.0, 0.001)",0.0,0.0,0.0,"(1e-05, 0.0, 0.0, 0.0, 1e-05, 0.0, 0.0, 0.0, 1e-05)",0.0,0.18183593750000002,9.8095703125,"(0.01, 0.0, 0.0, 0.0, 0.01, 0.0, 0.0, 0.0, 0.01)"
2025/07/11/14:07:31.073700,10,1752242851,73309908,imu_link,0.0025722210225009087,-0.009735354293210395,-0.9725801870175379,0.23234970707261118,"(0.001, 0.0, 0.0, 0.0, 0.001, 0.0, 0.0, 0.0, 0.001)",0.0,0.0,0.0,"(1e-05, 0.0, 0.0, 0.0, 1e-05, 0.0, 0.0, 0.0, 1e-05)",-0.00478515625,0.18183593750000002,9.8095703125,"(0.01, 0.0, 0.0, 0.0, 0.01, 0.0, 0.0, 0.0, 0.01)"
2025/07/11/14:07:31.093824,11,1752242851,93347845,imu_link,0.0025722210225009087,-0.009735354293210395,-0.9725801870175379,0.23234970707261118,"(0.001, 0.0, 0.0, 0.0, 0.001, 0.0, 0.0, 0.0, 0.001)",0.0,0.0,0.0,"(1e-05, 0.0, 0.0, 0.0, 1e-05, 0.0, 0.0, 0.0, 1e-05)",-0.00478515625,0.18183593750000002,9.8095703125,"(0.01, 0.0, 0.0, 0.0, 0.01, 0.0, 0.0, 0.0, 0.01)"
2025/07/11/14:07:31.123840,12,1752242851,123465404,imu_link,0.0025722210225009087,-0.009735354293210395,-0.9725801870175379,0.23234970707261118,"(0.001, 0.0, 0.0, 0.0, 0.001, 0.0, 0.0, 0.0, 0.001)",0.0,0.0,0.0,"(1e-05, 0.0, 0.0, 0.0, 1e-05, 0.0, 0.0, 0.0, 1e-05)",-0.00478515625,0.18183593750000002,9.8095703125,"(0.01, 0.0, 0.0, 0.0, 0.01, 0.0, 0.0, 0.0, 0.01)"
2025/07/11/14:07:31.174141,13,1752242851,173698765,imu_link,0.0025722210225009087,-0.009735354293210395,-0.9725801870175379,0.23234970707261118,"(0.001, 0.0, 0.0, 0.0, 0.001, 0.0, 0.0, 0.0, 0.001)",0.0,0.0,0.0,"(1e-05, 0.0, 0.0, 0.0, 1e-05, 0.0, 0.0, 0.0, 1e-05)",-0.00478515625,0.18183593750000002,9.8095703125,"(0.01, 0.0, 0.0, 0.0, 0.01, 0.0, 0.0, 0.0, 0.01)"
2025/07/11/14:07:31.193819,14,1752242851,193328976,imu_link,0.0025722210225009087,-0.009735354293210395,-0.9725801870175379,0.23234970707261118,"(0.001, 0.0, 0.0, 0.0, 0.001, 0.0, 0.0, 0.0, 0.001)",0.0,0.0,0.0,"(1e-05, 0.0, 0.0, 0.0, 1e-05, 0.0, 0.0, 0.0, 1e-05)",-0.00478515625,0.18183593750000002,9.8095703125,"(0.01, 0.0, 0.0, 0.0, 0.01, 0.0, 0.0, 0.0, 0.01)"
2025/07/11/14:07:31.224314,15,1752242851,223975278,imu_link,0.0025722210225009087,-0.009735354293210395,-0.9725801870175379,0.23234970707261118,"(0.001, 0.0, 0.0, 0.0, 0.001, 0.0, 0.0, 0.0, 0.001)",0.0,0.0,0.0,"(1e-05, 0.0, 0.0, 0.0, 1e-05, 0.0, 0.0, 0.0, 1e-05)",0.0,0.18183593750000002,9.8095703125,"(0.01, 0.0, 0.0, 0.0, 0.01, 0.0, 0.0, 0.0, 0.01)"
2025/07/11/14:07:31.274664,16,1752242851,274285715,imu_link,0.0025722210225009087,-0.009735354293210395,-0.9725801870175379,0.23234970707261118,"(0.001, 0.0, 0.0, 0.0, 0.001, 0.0, 0.0, 0.0, 0.001)",0.0,0.0,0.0,"(1e-05, 0.0, 0.0, 0.0, 1e-05, 0.0, 0.0, 0.0, 1e-05)",-0.00478515625,0.18662109375000002,9.8095703125,"(0.01, 0.0, 0.0, 0.0, 0.01, 0.0, 0.0, 0.0, 0.01)"
2025/07/11/14:07:31.293467,17,1752242851,293130780,imu_link,0.0025722210225009087,-0.009735354293210395,-0.9725801870175379,0.23234970707261118,"(0.001, 0.0, 0.0, 0.0, 0.001, 0.0, 0.0, 0.0, 0.001)",0.0,0.0,0.0,"(1e-05, 0.0, 0.0, 0.0, 1e-05, 0.0, 0.0, 0.0, 1e-05)",-0.00478515625,0.18662109375000002,9.8095703125,"(0.01, 0.0, 0.0, 0.0, 0.01, 0.0, 0.0, 0.0, 0.01)"
2025/07/11/14:07:31.324816,18,1752242851,324431753,imu_link,0.0025722210225009087,-0.009735354293210395,-0.9725801870175379,0.23234970707261118,"(0.001, 0.0, 0.0, 0.0, 0.001, 0.0, 0.0, 0.0, 0.001)",0.0,0.0,0.0,"(1e-05, 0.0, 0.0, 0.0, 1e-05, 0.0, 0.0, 0.0, 1e-05)",0.0,0.18183593750000002,9.8095703125,"(0.01, 0.0, 0.0, 0.0, 0.01, 0.0, 0.0, 0.0, 0.01)"
2025/07/11/14:07:31.375102,19,1752242851,374723975,imu_link,0.0025722210225009087,-0.009735354293210395,-0.9725801870175379,0.23234970707261118,"(0.001, 0.0, 0.0, 0.0, 0.001, 0.0, 0.0, 0.0, 0.001)",0.0,0.0,0.0,"(1e-05, 0.0, 0.0, 0.0, 1e-05, 0.0, 0.0, 0.0, 1e-05)",0.0,0.18183593750000002,9.8095703125,"(0.01, 0.0, 0.0, 0.0, 0.01, 0.0, 0.0, 0.0, 0.01)"
2025/07/11/14:07:31.393615,20,1752242851,393155754,imu_link,0.0025722210225009087,-0.009735354293210395,-0.9725801870175379,0.23234970707261118,"(0.001, 0.0, 0.0, 0.0, 0.001, 0.0, 0.0, 0.0, 0.001)",0.0,0.0,0.0,"(1e-05, 0.0, 0.0, 0.0, 1e-05, 0.0, 0.0, 0.0, 1e-05)",0.0,0.18183593750000002,9.8095703125,"(0.01, 0.0, 0.0, 0.0, 0.01, 0.0, 0.0, 0.0, 0.01)"
2025/07/11/14:07:31.425311,21,1752242851,424939844,imu_link,0.0025722210225009087,-0.009735354293210395,-0.9725801870175379,0.23234970707261118,"(0.001, 0.0, 0.0, 0.0, 0.001, 0.0, 0.0, 0.0, 0.001)",0.0,0.0,0.0,"(1e-05, 0.0, 0.0, 0.0, 1e-05, 0.0, 0.0, 0.0, 1e-05)",0.0,0.18183593750000002,9.8095703125,"(0.01, 0.0, 0.0, 0.0, 0.01, 0.0, 0.0, 0.0, 0.01)"
2025/07/11/14:07:31.475645,22,1752242851,475256423,imu_link,0.0025722210225009087,-0.009735354293210395,-0.9725801870175379,0.23234970707261118,"(0.001, 0.0, 0.0, 0.0, 0.001, 0.0, 0.0, 0.0, 0.001)",0.0,0.0,0.0,"(1e-05, 0.0, 0.0, 0.0, 1e-05, 0.0, 0.0, 0.0, 1e-05)",-0.00478515625,0.18183593750000002,9.8095703125,"(0.01, 0.0, 0.0, 0.0, 0.01, 0.0, 0.0, 0.0, 0.01)"
2025/07/11/14:07:31.493715,23,1752242851,493122167,imu_link,0.0025722210225009087,-0.009735354293210395,-0.9725801870175379,0.23234970707261118,"(0.001, 0.0, 0.0, 0.0, 0.001, 0.0, 0.0, 0.0, 0.001)",0.0,0.0,0.0,"(1e-05, 0.0, 0.0, 0.0, 1e-05, 0.0, 0.0, 0.0, 1e-05)",-0.00478515625,0.18183593750000002,9.8095703125,"(0.01, 0.0, 0.0, 0.0, 0.01, 0.0, 0.0, 0.0, 0.01)"
2025/07/11/14:07:31.526025,24,1752242851,525603508,imu_link,0.0025722210225009087,-0.009735354293210395,-0.9725801870175379,0.23234970707261118,"(0.001, 0.0, 0.0, 0.0, 0.001, 0.0, 0.0, 0.0, 0.001)",0.0,0.0,0.0,"(1e-05, 0.0, 0.0, 0.0, 1e-05, 0.0, 0.0, 0.0, 1e-05)",-0.00478515625,0.18183593750000002,9.8095703125,"(0.01, 0.0, 0.0, 0.0, 0.01, 0.0, 0.0, 0.0, 0.01)"
2025/07/11/14:07:31.576054,25,1752242851,575670277,imu_link,0.0025722210225009087,-0.009735354293210395,-0.9725801870175379,0.23234970707261118,"(0.001, 0.0, 0.0, 0.0, 0.001, 0.0, 0.0, 0.0, 0.001)",0.0,0.0,0.0,"(1e-05, 0.0, 0.0, 0.0, 1e-05, 0.0, 0.0, 0.0, 1e-05)",-0.00478515625,0.18183593750000002,9.8095703125,"(0.01, 0.0, 0.0, 0.0, 0.01, 0.0, 0.0, 0.0, 0.01)"
2025/07/11/14:07:31.593891,26,1752242851,593325215,imu_link,0.0025722210225009087,-0.009735354293210395,-0.9725801870175379,0.23234970707261118,"(0.001, 0.0, 0.0, 0.0, 0.001, 0.0, 0.0, 0.0, 0.001)",0.0,0.0,0.0,"(1e-05, 0.0, 0.0, 0.0, 1e-05, 0.0, 0.0, 0.0, 1e-05)",-0.00478515625,0.18183593750000002,9.8095703125,"(0.01, 0.0, 0.0, 0.0, 0.01, 0.0, 0.0, 0.0, 0.01)"
2025/07/11/14:07:31.626359,27,1752242851,625956157,imu_link,0.0025722210225009087,-0.009735354293210395,-0.9725801870175379,0.23234970707261118,"(0.001, 0.0, 0.0, 0.0, 0.001, 0.0, 0.0, 0.0, 0.001)",0.0,0.0,0.0,"(1e-05, 0.0, 0.0, 0.0, 1e-05, 0.0, 0.0, 0.0, 1e-05)",0.0,0.18183593750000002,9.8095703125,"(0.01, 0.0, 0.0, 0.0, 0.01, 0.0, 0.0, 0.0, 0.01)"
2025/07/11/14:07:31.676311,28,1752242851,676069354,imu_link,0.0025722210225009087,-0.009735354293210395,-0.9725801870175379,0.23234970707261118,"(0.001, 0.0, 0.0, 0.0, 0.001, 0.0, 0.0, 0.0, 0.001)",0.0,0.0,0.0,"(1e-05, 0.0, 0.0, 0.0, 1e-05, 0.0, 0.0, 0.0, 1e-05)",0.0,0.18183593750000002,9.8095703125,"(0.01, 0.0, 0.0, 0.0, 0.01, 0.0, 0.0, 0.0, 0.01)"
2025/07/11/14:07:31.693472,29,1752242851,693134403,imu_link,0.0025255985953112617,-0.009746492631408449,-0.9725800849451282,0.23235017882766645,"(0.001, 0.0, 0.0, 0.0, 0.001, 0.0, 0.0, 0.0, 0.001)",0.0,0.0,0.0,"(1e-05, 0.0, 0.0, 0.0, 1e-05, 0.0, 0.0, 0.0, 1e-05)",0.0,0.18183593750000002,9.8095703125,"(0.01, 0.0, 0.0, 0.0, 0.01, 0.0, 0.0, 0.0, 0.01)"
2025/07/11/14:07:31.726761,30,1752242851,726404466,imu_link,0.0025255985953112617,-0.009746492631408449,-0.9725800849451282,0.23235017882766645,"(0.001, 0.0, 0.0, 0.0, 0.001, 0.0, 0.0, 0.0, 0.001)",0.0,0.0,0.0,"(1e-05, 0.0, 0.0, 0.0, 1e-05, 0.0, 0.0, 0.0, 1e-05)",0.0,0.18183593750000002,9.8095703125,"(0.01, 0.0, 0.0, 0.0, 0.01, 0.0, 0.0, 0.0, 0.01)"
2025/07/11/14:07:31.777232,31,1752242851,776705055,imu_link,0.0025255985953112617,-0.009746492631408449,-0.9725800849451282,0.23235017882766645,"(0.001, 0.0, 0.0, 0.0, 0.001, 0.0, 0.0, 0.0, 0.001)",0.0,0.0,0.0,"(1e-05, 0.0, 0.0, 0.0, 1e-05, 0.0, 0.0, 0.0, 1e-05)",0.0,0.18183593750000002,9.8095703125,"(0.01, 0.0, 0.0, 0.0, 0.01, 0.0, 0.0, 0.0, 0.01)"
2025/07/11/14:07:31.793808,32,1752242851,793377638,imu_link,0.0025255985953112617,-0.009746492631408449,-0.9725800849451282,0.23235017882766645,"(0.001, 0.0, 0.0, 0.0, 0.001, 0.0, 0.0, 0.0, 0.001)",0.0,0.0,0.0,"(1e-05, 0.0, 0.0, 0.0, 1e-05, 0.0, 0.0, 0.0, 1e-05)",0.0,0.18183593750000002,9.8095703125,"(0.01, 0.0, 0.0, 0.0, 0.01, 0.0, 0.0, 0.0, 0.01)"
2025/07/11/14:07:31.827241,33,1752242851,826942876,imu_link,0.0025255985953112617,-0.009746492631408449,-0.9725800849451282,0.23235017882766645,"(0.001, 0.0, 0.0, 0.0, 0.001, 0.0, 0.0, 0.0, 0.001)",0.0,0.0,0.0,"(1e-05, 0.0, 0.0, 0.0, 1e-05, 0.0, 0.0, 0.0, 1e-05)",0.0,0.18183593750000002,9.814355468750001,"(0.01, 0.0, 0.0, 0.0, 0.01, 0.0, 0.0, 0.0, 0.01)"
2025/07/11/14:07:31.877489,34,1752242851,877211443,imu_link,0.0025255985953112617,-0.009746492631408449,-0.9725800849451282,0.23235017882766645,"(0.001, 0.0, 0.0, 0.0, 0.001, 0.0, 0.0, 0.0, 0.001)",0.0,0.0,0.0,"(1e-05, 0.0, 0.0, 0.0, 1e-05, 0.0, 0.0, 0.0, 1e-05)",-0.00478515625,0.18183593750000002,9.8095703125,"(0.01, 0.0, 0.0, 0.0, 0.01, 0.0, 0.0, 0.0, 0.01)"
2025/07/11/14:07:31.893782,35,1752242851,893127734,imu_link,0.0025255985953112617,-0.009746492631408449,-0.9725800849451282,0.23235017882766645,"(0.001, 0.0, 0.0, 0.0, 0.001, 0.0, 0.0, 0.0, 0.001)",0.0,0.0,0.0,"(1e-05, 0.0, 0.0, 0.0, 1e-05, 0.0, 0.0, 0.0, 1e-05)",-0.00478515625,0.18183593750000002,9.8095703125,"(0.01, 0.0, 0.0, 0.0, 0.01, 0.0, 0.0, 0.0, 0.01)"
2025/07/11/14:07:31.927624,36,1752242851,927353323,imu_link,0.0025255985953112617,-0.009746492631408449,-0.9725800849451282,0.23235017882766645,"(0.001, 0.0, 0.0, 0.0, 0.001, 0.0, 0.0, 0.0, 0.001)",0.0,0.0,0.0,"(1e-05, 0.0, 0.0, 0.0, 1e-05, 0.0, 0.0, 0.0, 1e-05)",-0.00478515625,0.18183593750000002,9.8095703125,"(0.01, 0.0, 0.0, 0.0, 0.01, 0.0, 0.0, 0.0, 0.01)"
2025/07/11/14:07:31.977933,37,1752242851,977621681,imu_link,0.0025255985953112617,-0.009746492631408449,-0.9725800849451282,0.23235017882766645,"(0.001, 0.0, 0.0, 0.0, 0.001, 0.0, 0.0, 0.0, 0.001)",0.0,0.0,0.0,"(1e-05, 0.0, 0.0, 0.0, 1e-05, 0.0, 0.0, 0.0, 1e-05)",0.0,0.18183593750000002,9.814355468750001,"(0.01, 0.0, 0.0, 0.0, 0.01, 0.0, 0.0, 0.0, 0.01)"
2025/07/11/14:07:31.993877,38,1752242851,993347274,imu_link,0.0025255985953112617,-0.009746492631408449,-0.9725800849451282,0.23235017882766645,"(0.001, 0.0, 0.0, 0.0, 0.001, 0.0, 0.0, 0.0, 0.001)",0.0,0.0,0.0,"(1e-05, 0.0, 0.0, 0.0, 1e-05, 0.0, 0.0, 0.0, 1e-05)",0.0,0.18183593750000002,9.814355468750001,"(0.01, 0.0, 0.0, 0.0, 0.01, 0.0, 0.0, 0.0, 0.01)"
2025/07/11/14:07:32.028206,39,1752242852,27878888,imu_link,0.0025255985953112617,-0.009746492631408449,-0.9725800849451282,0.23235017882766645,"(0.001, 0.0, 0.0, 0.0, 0.001, 0.0, 0.0, 0.0, 0.001)",0.0,0.0,0.0,"(1e-05, 0.0, 0.0, 0.0, 1e-05, 0.0, 0.0, 0.0, 1e-05)",0.0,0.18183593750000002,9.8095703125,"(0.01, 0.0, 0.0, 0.0, 0.01, 0.0, 0.0, 0.0, 0.01)"
2025/07/11/14:07:32.078494,40,1752242852,78227337,imu_link,0.0025255985953112617,-0.009746492631408449,-0.9725800849451282,0.23235017882766645,"(0.001, 0.0, 0.0, 0.0, 0.001, 0.0, 0.0, 0.0, 0.001)",0.0,0.0,0.0,"(1e-05, 0.0, 0.0, 0.0, 1e-05, 0.0, 0.0, 0.0, 1e-05)",-0.00478515625,0.18183593750000002,9.8095703125,"(0.01, 0.0, 0.0, 0.0, 0.01, 0.0, 0.0, 0.0, 0.01)"
2025/07/11/14:07:32.093916,41,1752242852,93329628,imu_link,0.0025255985953112617,-0.009746492631408449,-0.9725800849451282,0.23235017882766645,"(0.001, 0.0, 0.0, 0.0, 0.001, 0.0, 0.0, 0.0, 0.001)",0.0,0.0,0.0,"(1e-05, 0.0, 0.0, 0.0, 1e-05, 0.0, 0.0, 0.0, 1e-05)",-0.00478515625,0.18183593750000002,9.8095703125,"(0.01, 0.0, 0.0, 0.0, 0.01, 0.0, 0.0, 0.0, 0.01)"
2025/07/11/14:07:32.128684,42,1752242852,128360461,imu_link,0.0025255985953112617,-0.009746492631408449,-0.9725800849451282,0.23235017882766645,"(0.001, 0.0, 0.0, 0.0, 0.001, 0.0, 0.0, 0.0, 0.001)",0.0,0.0,0.0,"(1e-05, 0.0, 0.0, 0.0, 1e-05, 0.0, 0.0, 0.0, 1e-05)",-0.00478515625,0.18183593750000002,9.8095703125,"(0.01, 0.0, 0.0, 0.0, 0.01, 0.0, 0.0, 0.0, 0.01)"
2025/07/11/14:07:32.178903,43,1752242852,178572905,imu_link,0.0025255985953112617,-0.009746492631408449,-0.9725800849451282,0.23235017882766645,"(0.001, 0.0, 0.0, 0.0, 0.001, 0.0, 0.0, 0.0, 0.001)",0.0,0.0,0.0,"(1e-05, 0.0, 0.0, 0.0, 1e-05, 0.0, 0.0, 0.0, 1e-05)",0.0,0.18183593750000002,9.8095703125,"(0.01, 0.0, 0.0, 0.0, 0.01, 0.0, 0.0, 0.0, 0.01)"
2025/07/11/14:07:32.193847,44,1752242852,193327142,imu_link,0.0025255985953112617,-0.009746492631408449,-0.9725800849451282,0.23235017882766645,"(0.001, 0.0, 0.0, 0.0, 0.001, 0.0, 0.0, 0.0, 0.001)",0.0,0.0,0.0,"(1e-05, 0.0, 0.0, 0.0, 1e-05, 0.0, 0.0, 0.0, 1e-05)",0.0,0.18183593750000002,9.8095703125,"(0.01, 0.0, 0.0, 0.0, 0.01, 0.0, 0.0, 0.0, 0.01)"
2025/07/11/14:07:32.229151,45,1752242852,228823810,imu_link,0.0025255985953112617,-0.009746492631408449,-0.9725800849451282,0.23235017882766645,"(0.001, 0.0, 0.0, 0.0, 0.001, 0.0, 0.0, 0.0, 0.001)",0.0,0.0,0.0,"(1e-05, 0.0, 0.0, 0.0, 1e-05, 0.0, 0.0, 0.0, 1e-05)",0.0,0.18183593750000002,9.8095703125,"(0.01, 0.0, 0.0, 0.0, 0.01, 0.0, 0.0, 0.0, 0.01)"
2025/07/11/14:07:32.279515,46,1752242852,279166238,imu_link,0.0025255985953112617,-0.009746492631408449,-0.9725800849451282,0.23235017882766645,"(0.001, 0.0, 0.0, 0.0, 0.001, 0.0, 0.0, 0.0, 0.001)",0.0,0.0,0.0,"(1e-05, 0.0, 0.0, 0.0, 1e-05, 0.0, 0.0, 0.0, 1e-05)",-0.00478515625,0.18183593750000002,9.8095703125,"(0.01, 0.0, 0.0, 0.0, 0.01, 0.0, 0.0, 0.0, 0.01)"
2025/07/11/14:07:32.293922,47,1752242852,293317091,imu_link,0.0025255985953112617,-0.009746492631408449,-0.9725800849451282,0.23235017882766645,"(0.001, 0.0, 0.0, 0.0, 0.001, 0.0, 0.0, 0.0, 0.001)",0.0,0.0,0.0,"(1e-05, 0.0, 0.0, 0.0, 1e-05, 0.0, 0.0, 0.0, 1e-05)",-0.00478515625,0.18183593750000002,9.8095703125,"(0.01, 0.0, 0.0, 0.0, 0.01, 0.0, 0.0, 0.0, 0.01)"
2025/07/11/14:07:32.329715,48,1752242852,329393289,imu_link,0.0025255985953112617,-0.009746492631408449,-0.9725800849451282,0.23235017882766645,"(0.001, 0.0, 0.0, 0.0, 0.001, 0.0, 0.0, 0.0, 0.001)",0.0,0.0,0.0,"(1e-05, 0.0, 0.0, 0.0, 1e-05, 0.0, 0.0, 0.0, 1e-05)",0.0,0.18183593750000002,9.8095703125,"(0.01, 0.0, 0.0, 0.0, 0.01, 0.0, 0.0, 0.0, 0.01)"
2025/07/11/14:07:32.380049,49,1752242852,379693417,imu_link,0.0025255985953112617,-0.009746492631408449,-0.9725800849451282,0.23235017882766645,"(0.001, 0.0, 0.0, 0.0, 0.001, 0.0, 0.0, 0.0, 0.001)",0.0,0.0,0.0,"(1e-05, 0.0, 0.0, 0.0, 1e-05, 0.0, 0.0, 0.0, 1e-05)",0.0,0.18183593750000002,9.8095703125,"(0.01, 0.0, 0.0, 0.0, 0.01, 0.0, 0.0, 0.0, 0.01)"
2025/07/11/14:07:32.393696,50,1752242852,393187766,imu_link,0.0025255985953112617,-0.009746492631408449,-0.9725800849451282,0.23235017882766645,"(0.001, 0.0, 0.0, 0.0, 0.001, 0.0, 0.0, 0.0, 0.001)",0.0,0.0,0.0,"(1e-05, 0.0, 0.0, 0.0, 1e-05, 0.0, 0.0, 0.0, 1e-05)",0.0,0.18183593750000002,9.8095703125,"(0.01, 0.0, 0.0, 0.0, 0.01, 0.0, 0.0, 0.0, 0.01)"
2025/07/11/14:07:32.430321,51,1752242852,429941707,imu_link,0.0025255985953112617,-0.009746492631408449,-0.9725800849451282,0.23235017882766645,"(0.001, 0.0, 0.0, 0.0, 0.001, 0.0, 0.0, 0.0, 0.001)",0.0,0.0,0.0,"(1e-05, 0.0, 0.0, 0.0, 1e-05, 0.0, 0.0, 0.0, 1e-05)",-0.00478515625,0.18183593750000002,9.8095703125,"(0.01, 0.0, 0.0, 0.0, 0.01, 0.0, 0.0, 0.0, 0.01)"
2025/07/11/14:07:32.480411,52,1752242852,480173838,imu_link,0.0025255985953112617,-0.009746492631408449,-0.9725800849451282,0.23235017882766645,"(0.001, 0.0, 0.0, 0.0, 0.001, 0.0, 0.0, 0.0, 0.001)",0.0,0.0,0.0,"(1e-05, 0.0, 0.0, 0.0, 1e-05, 0.0, 0.0, 0.0, 1e-05)",0.0,0.18183593750000002,9.8095703125,"(0.01, 0.0, 0.0, 0.0, 0.01, 0.0, 0.0, 0.0, 0.01)"
2025/07/11/14:07:32.493883,53,1752242852,493319552,imu_link,0.0025255985953112617,-0.009746492631408449,-0.9725800849451282,0.23235017882766645,"(0.001, 0.0, 0.0, 0.0, 0.001, 0.0, 0.0, 0.0, 0.001)",0.0,0.0,0.0,"(1e-05, 0.0, 0.0, 0.0, 1e-05, 0.0, 0.0, 0.0, 1e-05)",0.0,0.18183593750000002,9.8095703125,"(0.01, 0.0, 0.0, 0.0, 0.01, 0.0, 0.0, 0.0, 0.01)"
2025/07/11/14:07:32.530682,54,1752242852,530399746,imu_link,0.0025255985953112617,-0.009746492631408449,-0.9725800849451282,0.23235017882766645,"(0.001, 0.0, 0.0, 0.0, 0.001, 0.0, 0.0, 0.0, 0.001)",0.0,0.0,0.0,"(1e-05, 0.0, 0.0, 0.0, 1e-05, 0.0, 0.0, 0.0, 1e-05)",-0.00478515625,0.18183593750000002,9.8095703125,"(0.01, 0.0, 0.0, 0.0, 0.01, 0.0, 0.0, 0.0, 0.01)"
2025/07/11/14:07:32.580816,55,1752242852,580543541,imu_link,0.0025255985953112617,-0.009746492631408449,-0.9725800849451282,0.23235017882766645,"(0.001, 0.0, 0.0, 0.0, 0.001, 0.0, 0.0, 0.0, 0.001)",0.0,0.0,0.0,"(1e-05, 0.0, 0.0, 0.0, 1e-05, 0.0, 0.0, 0.0, 1e-05)",0.0,0.18183593750000002,9.8095703125,"(0.01, 0.0, 0.0, 0.0, 0.01, 0.0, 0.0, 0.0, 0.01)"
2025/07/11/14:07:32.593863,56,1752242852,593329599,imu_link,0.0025722210225009087,-0.009735354293210395,-0.9725801870175379,0.23234970707261118,"(0.001, 0.0, 0.0, 0.0, 0.001, 0.0, 0.0, 0.0, 0.001)",0.0,0.0,0.0,"(1e-05, 0.0, 0.0, 0.0, 1e-05, 0.0, 0.0, 0.0, 1e-05)",0.0,0.18183593750000002,9.8095703125,"(0.01, 0.0, 0.0, 0.0, 0.01, 0.0, 0.0, 0.0, 0.01)"
2025/07/11/14:07:32.631098,57,1752242852,630805417,imu_link,0.0025722210225009087,-0.009735354293210395,-0.9725801870175379,0.23234970707261118,"(0.001, 0.0, 0.0, 0.0, 0.001, 0.0, 0.0, 0.0, 0.001)",0.0,0.0,0.0,"(1e-05, 0.0, 0.0, 0.0, 1e-05, 0.0, 0.0, 0.0, 1e-05)",0.0,0.18183593750000002,9.8095703125,"(0.01, 0.0, 0.0, 0.0, 0.01, 0.0, 0.0, 0.0, 0.01)"
2025/07/11/14:07:32.681315,58,1752242852,681062123,imu_link,0.0025722210225009087,-0.009735354293210395,-0.9725801870175379,0.23234970707261118,"(0.001, 0.0, 0.0, 0.0, 0.001, 0.0, 0.0, 0.0, 0.001)",0.0,0.0,0.0,"(1e-05, 0.0, 0.0, 0.0, 1e-05, 0.0, 0.0, 0.0, 1e-05)",0.0,0.18183593750000002,9.8095703125,"(0.01, 0.0, 0.0, 0.0, 0.01, 0.0, 0.0, 0.0, 0.01)"
2025/07/11/14:07:32.693772,59,1752242852,693327944,imu_link,0.0025722210225009087,-0.009735354293210395,-0.9725801870175379,0.23234970707261118,"(0.001, 0.0, 0.0, 0.0, 0.001, 0.0, 0.0, 0.0, 0.001)",0.0,0.0,0.0,"(1e-05, 0.0, 0.0, 0.0, 1e-05, 0.0, 0.0, 0.0, 1e-05)",0.0,0.18183593750000002,9.8095703125,"(0.01, 0.0, 0.0, 0.0, 0.01, 0.0, 0.0, 0.0, 0.01)"
2025/07/11/14:07:32.732144,60,1752242852,731746614,imu_link,0.0025722210225009087,-0.009735354293210395,-0.9725801870175379,0.23234970707261118,"(0.001, 0.0, 0.0, 0.0, 0.001, 0.0, 0.0, 0.0, 0.001)",0.0,0.0,0.0,"(1e-05, 0.0, 0.0, 0.0, 1e-05, 0.0, 0.0, 0.0, 1e-05)",-0.00478515625,0.18183593750000002,9.8095703125,"(0.01, 0.0, 0.0, 0.0, 0.01, 0.0, 0.0, 0.0, 0.01)"
2025/07/11/14:07:32.782349,61,1752242852,781815407,imu_link,0.0025722210225009087,-0.009735354293210395,-0.9725801870175379,0.23234970707261118,"(0.001, 0.0, 0.0, 0.0, 0.001, 0.0, 0.0, 0.0, 0.001)",0.0,0.0,0.0,"(1e-05, 0.0, 0.0, 0.0, 1e-05, 0.0, 0.0, 0.0, 1e-05)",-0.0095703125,0.18183593750000002,9.8095703125,"(0.01, 0.0, 0.0, 0.0, 0.01, 0.0, 0.0, 0.0, 0.01)"
2025/07/11/14:07:32.793808,62,1752242852,793357838,imu_link,0.0025722210225009087,-0.009735354293210395,-0.9725801870175379,0.23234970707261118,"(0.001, 0.0, 0.0, 0.0, 0.001, 0.0, 0.0, 0.0, 0.001)",0.0,0.0,0.0,"(1e-05, 0.0, 0.0, 0.0, 1e-05, 0.0, 0.0, 0.0, 1e-05)",-0.0095703125,0.18183593750000002,9.8095703125,"(0.01, 0.0, 0.0, 0.0, 0.01, 0.0, 0.0, 0.0, 0.01)"
2025/07/11/14:07:32.832217,63,1752242852,831825831,imu_link,0.0025722210225009087,-0.009735354293210395,-0.9725801870175379,0.23234970707261118,"(0.001, 0.0, 0.0, 0.0, 0.001, 0.0, 0.0, 0.0, 0.001)",0.0,0.0,0.0,"(1e-05, 0.0, 0.0, 0.0, 1e-05, 0.0, 0.0, 0.0, 1e-05)",-0.00478515625,0.18183593750000002,9.8095703125,"(0.01, 0.0, 0.0, 0.0, 0.01, 0.0, 0.0, 0.0, 0.01)"
2025/07/11/14:07:32.882524,64,1752242852,882185721,imu_link,0.0025610828951547504,-0.009688731804039038,-0.9725806525827627,0.23234983010994642,"(0.001, 0.0, 0.0, 0.0, 0.001, 0.0, 0.0, 0.0, 0.001)",0.0,0.0,0.0,"(1e-05, 0.0, 0.0, 0.0, 1e-05, 0.0, 0.0, 0.0, 1e-05)",0.0,0.18183593750000002,9.8095703125,"(0.01, 0.0, 0.0, 0.0, 0.01, 0.0, 0.0, 0.0, 0.01)"
2025/07/11/14:07:32.893935,65,1752242852,893440151,imu_link,0.0025610828951547504,-0.009688731804039038,-0.9725806525827627,0.23234983010994642,"(0.001, 0.0, 0.0, 0.0, 0.001, 0.0, 0.0, 0.0, 0.001)",0.0,0.0,0.0,"(1e-05, 0.0, 0.0, 0.0, 1e-05, 0.0, 0.0, 0.0, 1e-05)",0.0,0.18183593750000002,9.8095703125,"(0.01, 0.0, 0.0, 0.0, 0.01, 0.0, 0.0, 0.0, 0.01)"
2025/07/11/14:07:32.932735,66,1752242852,932357017,imu_link,0.0025610828951547504,-0.009688731804039038,-0.9725806525827627,0.23234983010994642,"(0.001, 0.0, 0.0, 0.0, 0.001, 0.0, 0.0, 0.0, 0.001)",0.0,0.0,0.0,"(1e-05, 0.0, 0.0, 0.0, 1e-05, 0.0, 0.0, 0.0, 1e-05)",-0.00478515625,0.18183593750000002,9.8095703125,"(0.01, 0.0, 0.0, 0.0, 0.01, 0.0, 0.0, 0.0, 0.01)"
2025/07/11/14:07:32.982840,67,1752242852,982501001,imu_link,0.0025610828951547504,-0.009688731804039038,-0.9725806525827627,0.23234983010994642,"(0.001, 0.0, 0.0, 0.0, 0.001, 0.0, 0.0, 0.0, 0.001)",0.0,0.0,0.0,"(1e-05, 0.0, 0.0, 0.0, 1e-05, 0.0, 0.0, 0.0, 1e-05)",0.0,0.18183593750000002,9.814355468750001,"(0.01, 0.0, 0.0, 0.0, 0.01, 0.0, 0.0, 0.0, 0.01)"
2025/07/11/14:07:32.993774,68,1752242852,993145966,imu_link,0.0025610828951547504,-0.009688731804039038,-0.9725806525827627,0.23234983010994642,"(0.001, 0.0, 0.0, 0.0, 0.001, 0.0, 0.0, 0.0, 0.001)",0.0,0.0,0.0,"(1e-05, 0.0, 0.0, 0.0, 1e-05, 0.0, 0.0, 0.0, 1e-05)",0.0,0.18183593750000002,9.814355468750001,"(0.01, 0.0, 0.0, 0.0, 0.01, 0.0, 0.0, 0.0, 0.01)"
2025/07/11/14:07:33.033139,69,1752242853,32846094,imu_link,0.0025610828951547504,-0.009688731804039038,-0.9725806525827627,0.23234983010994642,"(0.001, 0.0, 0.0, 0.0, 0.001, 0.0, 0.0, 0.0, 0.001)",0.0,0.0,0.0,"(1e-05, 0.0, 0.0, 0.0, 1e-05, 0.0, 0.0, 0.0, 1e-05)",0.0,0.18662109375000002,9.8095703125,"(0.01, 0.0, 0.0, 0.0, 0.01, 0.0, 0.0, 0.0, 0.01)"
2025/07/11/14:07:33.083376,70,1752242853,83015688,imu_link,0.0025722210225009087,-0.009735354293210395,-0.9725801870175379,0.23234970707261118,"(0.001, 0.0, 0.0, 0.0, 0.001, 0.0, 0.0, 0.0, 0.001)",0.0,0.0,0.0,"(1e-05, 0.0, 0.0, 0.0, 1e-05, 0.0, 0.0, 0.0, 1e-05)",-0.0095703125,0.17705078125,9.814355468750001,"(0.01, 0.0, 0.0, 0.0, 0.01, 0.0, 0.0, 0.0, 0.01)"
2025/07/11/14:07:33.093922,71,1752242853,93368324,imu_link,0.0025722210225009087,-0.009735354293210395,-0.9725801870175379,0.23234970707261118,"(0.001, 0.0, 0.0, 0.0, 0.001, 0.0, 0.0, 0.0, 0.001)",0.0,0.0,0.0,"(1e-05, 0.0, 0.0, 0.0, 1e-05, 0.0, 0.0, 0.0, 1e-05)",-0.0095703125,0.17705078125,9.814355468750001,"(0.01, 0.0, 0.0, 0.0, 0.01, 0.0, 0.0, 0.0, 0.01)"
2025/07/11/14:07:33.133811,72,1752242853,133317099,imu_link,0.0025722210225009087,-0.009735354293210395,-0.9725801870175379,0.23234970707261118,"(0.001, 0.0, 0.0, 0.0, 0.001, 0.0, 0.0, 0.0, 0.001)",0.0,0.0,0.0,"(1e-05, 0.0, 0.0, 0.0, 1e-05, 0.0, 0.0, 0.0, 1e-05)",-0.00478515625,0.17705078125,9.8095703125,"(0.01, 0.0, 0.0, 0.0, 0.01, 0.0, 0.0, 0.0, 0.01)"
2025/07/11/14:07:33.184034,73,1752242853,183600396,imu_link,0.0025610828951547504,-0.009688731804039038,-0.9725806525827627,0.23234983010994642,"(0.001, 0.0, 0.0, 0.0, 0.001, 0.0, 0.0, 0.0, 0.001)",0.0,0.0,0.0,"(1e-05, 0.0, 0.0, 0.0, 1e-05, 0.0, 0.0, 0.0, 1e-05)",-0.00478515625,0.17705078125,9.8095703125,"(0.01, 0.0, 0.0, 0.0, 0.01, 0.0, 0.0, 0.0, 0.01)"
2025/07/11/14:07:33.193963,74,1752242853,193390084,imu_link,0.0025610828951547504,-0.009688731804039038,-0.9725806525827627,0.23234983010994642,"(0.001, 0.0, 0.0, 0.0, 0.001, 0.0, 0.0, 0.0, 0.001)",0.0,0.0,0.0,"(1e-05, 0.0, 0.0, 0.0, 1e-05, 0.0, 0.0, 0.0, 1e-05)",-0.00478515625,0.17705078125,9.8095703125,"(0.01, 0.0, 0.0, 0.0, 0.01, 0.0, 0.0, 0.0, 0.01)"
2025/07/11/14:07:33.234215,75,1752242853,233739573,imu_link,0.0025610828951547504,-0.009688731804039038,-0.9725806525827627,0.23234983010994642,"(0.001, 0.0, 0.0, 0.0, 0.001, 0.0, 0.0, 0.0, 0.001)",0.0,0.0,0.0,"(1e-05, 0.0, 0.0, 0.0, 1e-05, 0.0, 0.0, 0.0, 1e-05)",0.0,0.18183593750000002,9.8095703125,"(0.01, 0.0, 0.0, 0.0, 0.01, 0.0, 0.0, 0.0, 0.01)"
2025/07/11/14:07:33.284716,76,1752242853,284286426,imu_link,0.0025610828951547504,-0.009688731804039038,-0.9725806525827627,0.23234983010994642,"(0.001, 0.0, 0.0, 0.0, 0.001, 0.0, 0.0, 0.0, 0.001)",0.0,0.0,0.0,"(1e-05, 0.0, 0.0, 0.0, 1e-05, 0.0, 0.0, 0.0, 1e-05)",-0.00478515625,0.18662109375000002,9.8095703125,"(0.01, 0.0, 0.0, 0.0, 0.01, 0.0, 0.0, 0.0, 0.01)"
2025/07/11/14:07:33.293960,77,1752242853,293386347,imu_link,0.0025610828951547504,-0.009688731804039038,-0.9725806525827627,0.23234983010994642,"(0.001, 0.0, 0.0, 0.0, 0.001, 0.0, 0.0, 0.0, 0.001)",0.0,0.0,0.0,"(1e-05, 0.0, 0.0, 0.0, 1e-05, 0.0, 0.0, 0.0, 1e-05)",-0.00478515625,0.18662109375000002,9.8095703125,"(0.01, 0.0, 0.0, 0.0, 0.01, 0.0, 0.0, 0.0, 0.01)"
2025/07/11/14:07:33.334655,78,1752242853,334261333,imu_link,0.0025610828951547504,-0.009688731804039038,-0.9725806525827627,0.23234983010994642,"(0.001, 0.0, 0.0, 0.0, 0.001, 0.0, 0.0, 0.0, 0.001)",0.0,0.0,0.0,"(1e-05, 0.0, 0.0, 0.0, 1e-05, 0.0, 0.0, 0.0, 1e-05)",-0.00478515625,0.18183593750000002,9.8095703125,"(0.01, 0.0, 0.0, 0.0, 0.01, 0.0, 0.0, 0.0, 0.01)"
2025/07/11/14:07:33.385093,79,1752242853,384675787,imu_link,0.0025610828951547504,-0.009688731804039038,-0.9725806525827627,0.23234983010994642,"(0.001, 0.0, 0.0, 0.0, 0.001, 0.0, 0.0, 0.0, 0.001)",0.0,0.0,0.0,"(1e-05, 0.0, 0.0, 0.0, 1e-05, 0.0, 0.0, 0.0, 1e-05)",0.0,0.18662109375000002,9.8095703125,"(0.01, 0.0, 0.0, 0.0, 0.01, 0.0, 0.0, 0.0, 0.01)"
2025/07/11/14:07:33.393906,80,1752242853,393386346,imu_link,0.0025610828951547504,-0.009688731804039038,-0.9725806525827627,0.23234983010994642,"(0.001, 0.0, 0.0, 0.0, 0.001, 0.0, 0.0, 0.0, 0.001)",0.0,0.0,0.0,"(1e-05, 0.0, 0.0, 0.0, 1e-05, 0.0, 0.0, 0.0, 1e-05)",0.0,0.18662109375000002,9.8095703125,"(0.01, 0.0, 0.0, 0.0, 0.01, 0.0, 0.0, 0.0, 0.01)"
2025/07/11/14:07:33.435121,81,1752242853,434728521,imu_link,0.0025610828951547504,-0.009688731804039038,-0.9725806525827627,0.23234983010994642,"(0.001, 0.0, 0.0, 0.0, 0.001, 0.0, 0.0, 0.0, 0.001)",0.0,0.0,0.0,"(1e-05, 0.0, 0.0, 0.0, 1e-05, 0.0, 0.0, 0.0, 1e-05)",0.0,0.18183593750000002,9.8095703125,"(0.01, 0.0, 0.0, 0.0, 0.01, 0.0, 0.0, 0.0, 0.01)"
2025/07/11/14:07:33.485564,82,1752242853,485143806,imu_link,0.0025610828951547504,-0.009688731804039038,-0.9725806525827627,0.23234983010994642,"(0.001, 0.0, 0.0, 0.0, 0.001, 0.0, 0.0, 0.0, 0.001)",0.0,0.0,0.0,"(1e-05, 0.0, 0.0, 0.0, 1e-05, 0.0, 0.0, 0.0, 1e-05)",0.0,0.18183593750000002,9.8095703125,"(0.01, 0.0, 0.0, 0.0, 0.01, 0.0, 0.0, 0.0, 0.01)"
2025/07/11/14:07:33.493907,83,1752242853,493356640,imu_link,0.0025610828951547504,-0.009688731804039038,-0.9725806525827627,0.23234983010994642,"(0.001, 0.0, 0.0, 0.0, 0.001, 0.0, 0.0, 0.0, 0.001)",0.0,0.0,0.0,"(1e-05, 0.0, 0.0, 0.0, 1e-05, 0.0, 0.0, 0.0, 1e-05)",0.0,0.18183593750000002,9.8095703125,"(0.01, 0.0, 0.0, 0.0, 0.01, 0.0, 0.0, 0.0, 0.01)"
2025/07/11/14:07:33.535696,84,1752242853,535186220,imu_link,0.0025610828951547504,-0.009688731804039038,-0.9725806525827627,0.23234983010994642,"(0.001, 0.0, 0.0, 0.0, 0.001, 0.0, 0.0, 0.0, 0.001)",0.0,0.0,0.0,"(1e-05, 0.0, 0.0, 0.0, 1e-05, 0.0, 0.0, 0.0, 1e-05)",-0.00478515625,0.18183593750000002,9.8095703125,"(0.01, 0.0, 0.0, 0.0, 0.01, 0.0, 0.0, 0.0, 0.01)"
2025/07/11/14:07:33.586058,85,1752242853,585668351,imu_link,0.0025610828951547504,-0.009688731804039038,-0.9725806525827627,0.23234983010994642,"(0.001, 0.0, 0.0, 0.0, 0.001, 0.0, 0.0, 0.0, 0.001)",0.0,0.0,0.0,"(1e-05, 0.0, 0.0, 0.0, 1e-05, 0.0, 0.0, 0.0, 1e-05)",-0.00478515625,0.18183593750000002,9.8095703125,"(0.01, 0.0, 0.0, 0.0, 0.01, 0.0, 0.0, 0.0, 0.01)"
2025/07/11/14:07:33.593889,86,1752242853,593358984,imu_link,0.0025610828951547504,-0.009688731804039038,-0.9725806525827627,0.23234983010994642,"(0.001, 0.0, 0.0, 0.0, 0.001, 0.0, 0.0, 0.0, 0.001)",0.0,0.0,0.0,"(1e-05, 0.0, 0.0, 0.0, 1e-05, 0.0, 0.0, 0.0, 1e-05)",-0.00478515625,0.18183593750000002,9.8095703125,"(0.01, 0.0, 0.0, 0.0, 0.01, 0.0, 0.0, 0.0, 0.01)"
2025/07/11/14:07:33.636198,87,1752242853,635779816,imu_link,0.0025610828951547504,-0.009688731804039038,-0.9725806525827627,0.23234983010994642,"(0.001, 0.0, 0.0, 0.0, 0.001, 0.0, 0.0, 0.0, 0.001)",0.0,0.0,0.0,"(1e-05, 0.0, 0.0, 0.0, 1e-05, 0.0, 0.0, 0.0, 1e-05)",0.0,0.18183593750000002,9.8095703125,"(0.01, 0.0, 0.0, 0.0, 0.01, 0.0, 0.0, 0.0, 0.01)"
2025/07/11/14:07:33.686623,88,1752242853,686218715,imu_link,0.0025610828951547504,-0.009688731804039038,-0.9725806525827627,0.23234983010994642,"(0.001, 0.0, 0.0, 0.0, 0.001, 0.0, 0.0, 0.0, 0.001)",0.0,0.0,0.0,"(1e-05, 0.0, 0.0, 0.0, 1e-05, 0.0, 0.0, 0.0, 1e-05)",0.0,0.18183593750000002,9.8095703125,"(0.01, 0.0, 0.0, 0.0, 0.01, 0.0, 0.0, 0.0, 0.01)"
2025/07/11/14:07:33.693826,89,1752242853,693356199,imu_link,0.0025610828951547504,-0.009688731804039038,-0.9725806525827627,0.23234983010994642,"(0.001, 0.0, 0.0, 0.0, 0.001, 0.0, 0.0, 0.0, 0.001)",0.0,0.0,0.0,"(1e-05, 0.0, 0.0, 0.0, 1e-05, 0.0, 0.0, 0.0, 1e-05)",0.0,0.18183593750000002,9.8095703125,"(0.01, 0.0, 0.0, 0.0, 0.01, 0.0, 0.0, 0.0, 0.01)"
2025/07/11/14:07:33.736568,90,1752242853,736161453,imu_link,0.0025610828951547504,-0.009688731804039038,-0.9725806525827627,0.23234983010994642,"(0.001, 0.0, 0.0, 0.0, 0.001, 0.0, 0.0, 0.0, 0.001)",0.0,0.0,0.0,"(1e-05, 0.0, 0.0, 0.0, 1e-05, 0.0, 0.0, 0.0, 1e-05)",0.0,0.18183593750000002,9.8095703125,"(0.01, 0.0, 0.0, 0.0, 0.01, 0.0, 0.0, 0.0, 0.01)"
2025/07/11/14:07:33.787118,91,1752242853,786637232,imu_link,0.0025610828951547504,-0.009688731804039038,-0.9725806525827627,0.23234983010994642,"(0.001, 0.0, 0.0, 0.0, 0.001, 0.0, 0.0, 0.0, 0.001)",0.0,0.0,0.0,"(1e-05, 0.0, 0.0, 0.0, 1e-05, 0.0, 0.0, 0.0, 1e-05)",0.0,0.18183593750000002,9.8095703125,"(0.01, 0.0, 0.0, 0.0, 0.01, 0.0, 0.0, 0.0, 0.01)"
2025/07/11/14:07:33.793920,92,1752242853,793358313,imu_link,0.0025610828951547504,-0.009688731804039038,-0.9725806525827627,0.23234983010994642,"(0.001, 0.0, 0.0, 0.0, 0.001, 0.0, 0.0, 0.0, 0.001)",0.0,0.0,0.0,"(1e-05, 0.0, 0.0, 0.0, 1e-05, 0.0, 0.0, 0.0, 1e-05)",0.0,0.18183593750000002,9.8095703125,"(0.01, 0.0, 0.0, 0.0, 0.01, 0.0, 0.0, 0.0, 0.01)"
2025/07/11/14:07:33.836992,93,1752242853,836618682,imu_link,0.0025610828951547504,-0.009688731804039038,-0.9725806525827627,0.23234983010994642,"(0.001, 0.0, 0.0, 0.0, 0.001, 0.0, 0.0, 0.0, 0.001)",0.0,0.0,0.0,"(1e-05, 0.0, 0.0, 0.0, 1e-05, 0.0, 0.0, 0.0, 1e-05)",0.0,0.18183593750000002,9.8095703125,"(0.01, 0.0, 0.0, 0.0, 0.01, 0.0, 0.0, 0.0, 0.01)"
2025/07/11/14:07:33.887262,94,1752242853,886857266,imu_link,0.0025610828951547504,-0.009688731804039038,-0.9725806525827627,0.23234983010994642,"(0.001, 0.0, 0.0, 0.0, 0.001, 0.0, 0.0, 0.0, 0.001)",0.0,0.0,0.0,"(1e-05, 0.0, 0.0, 0.0, 1e-05, 0.0, 0.0, 0.0, 1e-05)",0.0,0.18183593750000002,9.8095703125,"(0.01, 0.0, 0.0, 0.0, 0.01, 0.0, 0.0, 0.0, 0.01)"
2025/07/11/14:07:33.893786,95,1752242853,893351119,imu_link,0.0025610828951547504,-0.009688731804039038,-0.9725806525827627,0.23234983010994642,"(0.001, 0.0, 0.0, 0.0, 0.001, 0.0, 0.0, 0.0, 0.001)",0.0,0.0,0.0,"(1e-05, 0.0, 0.0, 0.0, 1e-05, 0.0, 0.0, 0.0, 1e-05)",0.0,0.18183593750000002,9.8095703125,"(0.01, 0.0, 0.0, 0.0, 0.01, 0.0, 0.0, 0.0, 0.01)"
2025/07/11/14:07:33.937289,96,1752242853,937003645,imu_link,0.0025610828951547504,-0.009688731804039038,-0.9725806525827627,0.23234983010994642,"(0.001, 0.0, 0.0, 0.0, 0.001, 0.0, 0.0, 0.0, 0.001)",0.0,0.0,0.0,"(1e-05, 0.0, 0.0, 0.0, 1e-05, 0.0, 0.0, 0.0, 1e-05)",0.0,0.18183593750000002,9.8095703125,"(0.01, 0.0, 0.0, 0.0, 0.01, 0.0, 0.0, 0.0, 0.01)"
2025/07/11/14:07:33.987711,97,1752242853,987367143,imu_link,0.002514460445404196,-0.009699870147117328,-0.9725805510442905,0.23235029963006656,"(0.001, 0.0, 0.0, 0.0, 0.001, 0.0, 0.0, 0.0, 0.001)",0.0,0.0,0.0,"(1e-05, 0.0, 0.0, 0.0, 1e-05, 0.0, 0.0, 0.0, 1e-05)",-0.00478515625,0.18183593750000002,9.814355468750001,"(0.01, 0.0, 0.0, 0.0, 0.01, 0.0, 0.0, 0.0, 0.01)"
2025/07/11/14:07:33.993551,98,1752242853,993163306,imu_link,0.002514460445404196,-0.009699870147117328,-0.9725805510442905,0.23235029963006656,"(0.001, 0.0, 0.0, 0.0, 0.001, 0.0, 0.0, 0.0, 0.001)",0.0,0.0,0.0,"(1e-05, 0.0, 0.0, 0.0, 1e-05, 0.0, 0.0, 0.0, 1e-05)",-0.00478515625,0.18183593750000002,9.814355468750001,"(0.01, 0.0, 0.0, 0.0, 0.01, 0.0, 0.0, 0.0, 0.01)"
2025/07/11/14:07:34.037805,99,1752242854,37473348,imu_link,0.002514460445404196,-0.009699870147117328,-0.9725805510442905,0.23235029963006656,"(0.001, 0.0, 0.0, 0.0, 0.001, 0.0, 0.0, 0.0, 0.001)",0.0,0.0,0.0,"(1e-05, 0.0, 0.0, 0.0, 1e-05, 0.0, 0.0, 0.0, 1e-05)",-0.00478515625,0.18183593750000002,9.814355468750001,"(0.01, 0.0, 0.0, 0.0, 0.01, 0.0, 0.0, 0.0, 0.01)"
2025/07/11/14:07:34.088576,100,1752242854,88116181,imu_link,0.002514460445404196,-0.009699870147117328,-0.9725805510442905,0.23235029963006656,"(0.001, 0.0, 0.0, 0.0, 0.001, 0.0, 0.0, 0.0, 0.001)",0.0,0.0,0.0,"(1e-05, 0.0, 0.0, 0.0, 1e-05, 0.0, 0.0, 0.0, 1e-05)",0.0,0.18183593750000002,9.8095703125,"(0.01, 0.0, 0.0, 0.0, 0.01, 0.0, 0.0, 0.0, 0.01)"
2025/07/11/14:07:34.093805,101,1752242854,93372780,imu_link,0.0025610828951547504,-0.009688731804039038,-0.9725806525827627,0.23234983010994642,"(0.001, 0.0, 0.0, 0.0, 0.001, 0.0, 0.0, 0.0, 0.001)",0.0,0.0,0.0,"(1e-05, 0.0, 0.0, 0.0, 1e-05, 0.0, 0.0, 0.0, 1e-05)",0.0,0.18183593750000002,9.8095703125,"(0.01, 0.0, 0.0, 0.0, 0.01, 0.0, 0.0, 0.0, 0.01)"
2025/07/11/14:07:34.138405,102,1752242854,138018684,imu_link,0.0025610828951547504,-0.009688731804039038,-0.9725806525827627,0.23234983010994642,"(0.001, 0.0, 0.0, 0.0, 0.001, 0.0, 0.0, 0.0, 0.001)",0.0,0.0,0.0,"(1e-05, 0.0, 0.0, 0.0, 1e-05, 0.0, 0.0, 0.0, 1e-05)",-0.00478515625,0.18183593750000002,9.8095703125,"(0.01, 0.0, 0.0, 0.0, 0.01, 0.0, 0.0, 0.0, 0.01)"
2025/07/11/14:07:34.188969,103,1752242854,188500165,imu_link,0.0025610828951547504,-0.009688731804039038,-0.9725806525827627,0.23234983010994642,"(0.001, 0.0, 0.0, 0.0, 0.001, 0.0, 0.0, 0.0, 0.001)",0.0,0.0,0.0,"(1e-05, 0.0, 0.0, 0.0, 1e-05, 0.0, 0.0, 0.0, 1e-05)",-0.00478515625,0.18183593750000002,9.814355468750001,"(0.01, 0.0, 0.0, 0.0, 0.01, 0.0, 0.0, 0.0, 0.01)"
2025/07/11/14:07:34.193883,104,1752242854,193366410,imu_link,0.0025610828951547504,-0.009688731804039038,-0.9725806525827627,0.23234983010994642,"(0.001, 0.0, 0.0, 0.0, 0.001, 0.0, 0.0, 0.0, 0.001)",0.0,0.0,0.0,"(1e-05, 0.0, 0.0, 0.0, 1e-05, 0.0, 0.0, 0.0, 1e-05)",-0.00478515625,0.18183593750000002,9.814355468750001,"(0.01, 0.0, 0.0, 0.0, 0.01, 0.0, 0.0, 0.0, 0.01)"
2025/07/11/14:07:34.238829,105,1752242854,238483809,imu_link,0.0025610828951547504,-0.009688731804039038,-0.9725806525827627,0.23234983010994642,"(0.001, 0.0, 0.0, 0.0, 0.001, 0.0, 0.0, 0.0, 0.001)",0.0,0.0,0.0,"(1e-05, 0.0, 0.0, 0.0, 1e-05, 0.0, 0.0, 0.0, 1e-05)",0.0,0.18183593750000002,9.8095703125,"(0.01, 0.0, 0.0, 0.0, 0.01, 0.0, 0.0, 0.0, 0.01)"
2025/07/11/14:07:34.289118,106,1752242854,288732882,imu_link,0.0025610828951547504,-0.009688731804039038,-0.9725806525827627,0.23234983010994642,"(0.001, 0.0, 0.0, 0.0, 0.001, 0.0, 0.0, 0.0, 0.001)",0.0,0.0,0.0,"(1e-05, 0.0, 0.0, 0.0, 1e-05, 0.0, 0.0, 0.0, 1e-05)",0.0,0.18183593750000002,9.8095703125,"(0.01, 0.0, 0.0, 0.0, 0.01, 0.0, 0.0, 0.0, 0.01)"
2025/07/11/14:07:34.293594,107,1752242854,293154602,imu_link,0.0025610828951547504,-0.009688731804039038,-0.9725806525827627,0.23234983010994642,"(0.001, 0.0, 0.0, 0.0, 0.001, 0.0, 0.0, 0.0, 0.001)",0.0,0.0,0.0,"(1e-05, 0.0, 0.0, 0.0, 1e-05, 0.0, 0.0, 0.0, 1e-05)",0.0,0.18183593750000002,9.8095703125,"(0.01, 0.0, 0.0, 0.0, 0.01, 0.0, 0.0, 0.0, 0.01)"
2025/07/11/14:07:34.339101,108,1752242854,338821725,imu_link,0.0025610828951547504,-0.009688731804039038,-0.9725806525827627,0.23234983010994642,"(0.001, 0.0, 0.0, 0.0, 0.001, 0.0, 0.0, 0.0, 0.001)",0.0,0.0,0.0,"(1e-05, 0.0, 0.0, 0.0, 1e-05, 0.0, 0.0, 0.0, 1e-05)",0.0,0.18662109375000002,9.8095703125,"(0.01, 0.0, 0.0, 0.0, 0.01, 0.0, 0.0, 0.0, 0.01)"
2025/07/11/14:07:34.389830,109,1752242854,389251008,imu_link,0.0025610828951547504,-0.009688731804039038,-0.9725806525827627,0.23234983010994642,"(0.001, 0.0, 0.0, 0.0, 0.001, 0.0, 0.0, 0.0, 0.001)",0.0,0.0,0.0,"(1e-05, 0.0, 0.0, 0.0, 1e-05, 0.0, 0.0, 0.0, 1e-05)",-0.00478515625,0.172265625,9.819140625000001,"(0.01, 0.0, 0.0, 0.0, 0.01, 0.0, 0.0, 0.0, 0.01)"
2025/07/11/14:07:34.393680,110,1752242854,393150065,imu_link,0.002514460445404196,-0.009699870147117328,-0.9725805510442905,0.23235029963006656,"(0.001, 0.0, 0.0, 0.0, 0.001, 0.0, 0.0, 0.0, 0.001)",0.0,0.0,0.0,"(1e-05, 0.0, 0.0, 0.0, 1e-05, 0.0, 0.0, 0.0, 1e-05)",-0.00478515625,0.172265625,9.819140625000001,"(0.01, 0.0, 0.0, 0.0, 0.01, 0.0, 0.0, 0.0, 0.01)"
2025/07/11/14:07:34.439755,111,1752242854,439380376,imu_link,0.002514460445404196,-0.009699870147117328,-0.9725805510442905,0.23235029963006656,"(0.001, 0.0, 0.0, 0.0, 0.001, 0.0, 0.0, 0.0, 0.001)",0.0,0.0,0.0,"(1e-05, 0.0, 0.0, 0.0, 1e-05, 0.0, 0.0, 0.0, 1e-05)",0.0,0.18662109375000002,9.80478515625,"(0.01, 0.0, 0.0, 0.0, 0.01, 0.0, 0.0, 0.0, 0.01)"
2025/07/11/14:07:34.490049,112,1752242854,489593643,imu_link,0.0025610828951547504,-0.009688731804039038,-0.9725806525827627,0.23234983010994642,"(0.001, 0.0, 0.0, 0.0, 0.001, 0.0, 0.0, 0.0, 0.001)",0.0,0.0,0.0,"(1e-05, 0.0, 0.0, 0.0, 1e-05, 0.0, 0.0, 0.0, 1e-05)",-0.00478515625,0.17705078125,9.814355468750001,"(0.01, 0.0, 0.0, 0.0, 0.01, 0.0, 0.0, 0.0, 0.01)"
2025/07/11/14:07:34.493629,113,1752242854,493140168,imu_link,0.0025610828951547504,-0.009688731804039038,-0.9725806525827627,0.23234983010994642,"(0.001, 0.0, 0.0, 0.0, 0.001, 0.0, 0.0, 0.0, 0.001)",0.0,0.0,0.0,"(1e-05, 0.0, 0.0, 0.0, 1e-05, 0.0, 0.0, 0.0, 1e-05)",-0.00478515625,0.17705078125,9.814355468750001,"(0.01, 0.0, 0.0, 0.0, 0.01, 0.0, 0.0, 0.0, 0.01)"
2025/07/11/14:07:34.540213,114,1752242854,539896036,imu_link,0.0025610828951547504,-0.009688731804039038,-0.9725806525827627,0.23234983010994642,"(0.001, 0.0, 0.0, 0.0, 0.001, 0.0, 0.0, 0.0, 0.001)",0.0,0.0,0.0,"(1e-05, 0.0, 0.0, 0.0, 1e-05, 0.0, 0.0, 0.0, 1e-05)",0.0,0.18183593750000002,9.8095703125,"(0.01, 0.0, 0.0, 0.0, 0.01, 0.0, 0.0, 0.0, 0.01)"
2025/07/11/14:07:34.590592,115,1752242854,590245759,imu_link,0.0025610828951547504,-0.009688731804039038,-0.9725806525827627,0.23234983010994642,"(0.001, 0.0, 0.0, 0.0, 0.001, 0.0, 0.0, 0.0, 0.001)",0.0,0.0,0.0,"(1e-05, 0.0, 0.0, 0.0, 1e-05, 0.0, 0.0, 0.0, 1e-05)",-0.00478515625,0.18662109375000002,9.8095703125,"(0.01, 0.0, 0.0, 0.0, 0.01, 0.0, 0.0, 0.0, 0.01)"
2025/07/11/14:07:34.593539,116,1752242854,593135971,imu_link,0.0025610828951547504,-0.009688731804039038,-0.9725806525827627,0.23234983010994642,"(0.001, 0.0, 0.0, 0.0, 0.001, 0.0, 0.0, 0.0, 0.001)",0.0,0.0,0.0,"(1e-05, 0.0, 0.0, 0.0, 1e-05, 0.0, 0.0, 0.0, 1e-05)",-0.00478515625,0.18662109375000002,9.8095703125,"(0.01, 0.0, 0.0, 0.0, 0.01, 0.0, 0.0, 0.0, 0.01)"
2025/07/11/14:07:34.640915,117,1752242854,640610320,imu_link,0.0025610828951547504,-0.009688731804039038,-0.9725806525827627,0.23234983010994642,"(0.001, 0.0, 0.0, 0.0, 0.001, 0.0, 0.0, 0.0, 0.001)",0.0,0.0,0.0,"(1e-05, 0.0, 0.0, 0.0, 1e-05, 0.0, 0.0, 0.0, 1e-05)",-0.00478515625,0.18183593750000002,9.819140625000001,"(0.01, 0.0, 0.0, 0.0, 0.01, 0.0, 0.0, 0.0, 0.01)"
2025/07/11/14:07:34.691122,118,1752242854,690689735,imu_link,0.0025610828951547504,-0.009688731804039038,-0.9725806525827627,0.23234983010994642,"(0.001, 0.0, 0.0, 0.0, 0.001, 0.0, 0.0, 0.0, 0.001)",0.0,0.0,0.0,"(1e-05, 0.0, 0.0, 0.0, 1e-05, 0.0, 0.0, 0.0, 1e-05)",-0.00478515625,0.18183593750000002,9.80478515625,"(0.01, 0.0, 0.0, 0.0, 0.01, 0.0, 0.0, 0.0, 0.01)"
2025/07/11/14:07:34.693871,119,1752242854,693328534,imu_link,0.0025610828951547504,-0.009688731804039038,-0.9725806525827627,0.23234983010994642,"(0.001, 0.0, 0.0, 0.0, 0.001, 0.0, 0.0, 0.0, 0.001)",0.0,0.0,0.0,"(1e-05, 0.0, 0.0, 0.0, 1e-05, 0.0, 0.0, 0.0, 1e-05)",-0.00478515625,0.18183593750000002,9.80478515625,"(0.01, 0.0, 0.0, 0.0, 0.01, 0.0, 0.0, 0.0, 0.01)"
2025/07/11/14:07:34.741639,120,1752242854,741180683,imu_link,0.0025610828951547504,-0.009688731804039038,-0.9725806525827627,0.23234983010994642,"(0.001, 0.0, 0.0, 0.0, 0.001, 0.0, 0.0, 0.0, 0.001)",0.0,0.0,0.0,"(1e-05, 0.0, 0.0, 0.0, 1e-05, 0.0, 0.0, 0.0, 1e-05)",0.0,0.17705078125,9.814355468750001,"(0.01, 0.0, 0.0, 0.0, 0.01, 0.0, 0.0, 0.0, 0.01)"
2025/07/11/14:07:34.791643,121,1752242854,791166111,imu_link,0.0025610828951547504,-0.009688731804039038,-0.9725806525827627,0.23234983010994642,"(0.001, 0.0, 0.0, 0.0, 0.001, 0.0, 0.0, 0.0, 0.001)",0.0,0.0,0.0,"(1e-05, 0.0, 0.0, 0.0, 1e-05, 0.0, 0.0, 0.0, 1e-05)",0.0,0.18183593750000002,9.8095703125,"(0.01, 0.0, 0.0, 0.0, 0.01, 0.0, 0.0, 0.0, 0.01)"
2025/07/11/14:07:34.794066,122,1752242854,793522800,imu_link,0.0025610828951547504,-0.009688731804039038,-0.9725806525827627,0.23234983010994642,"(0.001, 0.0, 0.0, 0.0, 0.001, 0.0, 0.0, 0.0, 0.001)",0.0,0.0,0.0,"(1e-05, 0.0, 0.0, 0.0, 1e-05, 0.0, 0.0, 0.0, 1e-05)",0.0,0.18183593750000002,9.8095703125,"(0.01, 0.0, 0.0, 0.0, 0.01, 0.0, 0.0, 0.0, 0.01)"
2025/07/11/14:07:34.841964,123,1752242854,841479575,imu_link,0.0025610828951547504,-0.009688731804039038,-0.9725806525827627,0.23234983010994642,"(0.001, 0.0, 0.0, 0.0, 0.001, 0.0, 0.0, 0.0, 0.001)",0.0,0.0,0.0,"(1e-05, 0.0, 0.0, 0.0, 1e-05, 0.0, 0.0, 0.0, 1e-05)",-0.00478515625,0.18183593750000002,9.8095703125,"(0.01, 0.0, 0.0, 0.0, 0.01, 0.0, 0.0, 0.0, 0.01)"
2025/07/11/14:07:34.892369,124,1752242854,891885564,imu_link,0.0025610828951547504,-0.009688731804039038,-0.9725806525827627,0.23234983010994642,"(0.001, 0.0, 0.0, 0.0, 0.001, 0.0, 0.0, 0.0, 0.001)",0.0,0.0,0.0,"(1e-05, 0.0, 0.0, 0.0, 1e-05, 0.0, 0.0, 0.0, 1e-05)",0.0,0.18183593750000002,9.814355468750001,"(0.01, 0.0, 0.0, 0.0, 0.01, 0.0, 0.0, 0.0, 0.01)"
2025/07/11/14:07:34.893428,125,1752242854,893139330,imu_link,0.0025610828951547504,-0.009688731804039038,-0.9725806525827627,0.23234983010994642,"(0.001, 0.0, 0.0, 0.0, 0.001, 0.0, 0.0, 0.0, 0.001)",0.0,0.0,0.0,"(1e-05, 0.0, 0.0, 0.0, 1e-05, 0.0, 0.0, 0.0, 1e-05)",0.0,0.18183593750000002,9.814355468750001,"(0.01, 0.0, 0.0, 0.0, 0.01, 0.0, 0.0, 0.0, 0.01)"
2025/07/11/14:07:34.942368,126,1752242854,941926617,imu_link,0.0025610828951547504,-0.009688731804039038,-0.9725806525827627,0.23234983010994642,"(0.001, 0.0, 0.0, 0.0, 0.001, 0.0, 0.0, 0.0, 0.001)",0.0,0.0,0.0,"(1e-05, 0.0, 0.0, 0.0, 1e-05, 0.0, 0.0, 0.0, 1e-05)",0.0,0.18183593750000002,9.8095703125,"(0.01, 0.0, 0.0, 0.0, 0.01, 0.0, 0.0, 0.0, 0.01)"
2025/07/11/14:07:34.992916,127,1752242854,992374885,imu_link,0.0025610828951547504,-0.009688731804039038,-0.9725806525827627,0.23234983010994642,"(0.001, 0.0, 0.0, 0.0, 0.001, 0.0, 0.0, 0.0, 0.001)",0.0,0.0,0.0,"(1e-05, 0.0, 0.0, 0.0, 1e-05, 0.0, 0.0, 0.0, 1e-05)",0.0,0.18183593750000002,9.814355468750001,"(0.01, 0.0, 0.0, 0.0, 0.01, 0.0, 0.0, 0.0, 0.01)"
2025/07/11/14:07:34.993445,128,1752242854,993144501,imu_link,0.0025610828951547504,-0.009688731804039038,-0.9725806525827627,0.23234983010994642,"(0.001, 0.0, 0.0, 0.0, 0.001, 0.0, 0.0, 0.0, 0.001)",0.0,0.0,0.0,"(1e-05, 0.0, 0.0, 0.0, 1e-05, 0.0, 0.0, 0.0, 1e-05)",0.0,0.18183593750000002,9.814355468750001,"(0.01, 0.0, 0.0, 0.0, 0.01, 0.0, 0.0, 0.0, 0.01)"
2025/07/11/14:07:35.042889,129,1752242855,42401701,imu_link,0.0025610828951547504,-0.009688731804039038,-0.9725806525827627,0.23234983010994642,"(0.001, 0.0, 0.0, 0.0, 0.001, 0.0, 0.0, 0.0, 0.001)",0.0,0.0,0.0,"(1e-05, 0.0, 0.0, 0.0, 1e-05, 0.0, 0.0, 0.0, 1e-05)",0.0,0.18662109375000002,9.8095703125,"(0.01, 0.0, 0.0, 0.0, 0.01, 0.0, 0.0, 0.0, 0.01)"
2025/07/11/14:07:35.093151,130,1752242855,92720617,imu_link,0.0025610828951547504,-0.009688731804039038,-0.9725806525827627,0.23234983010994642,"(0.001, 0.0, 0.0, 0.0, 0.001, 0.0, 0.0, 0.0, 0.001)",0.0,0.0,0.0,"(1e-05, 0.0, 0.0, 0.0, 1e-05, 0.0, 0.0, 0.0, 1e-05)",0.0,0.19619140625,9.80478515625,"(0.01, 0.0, 0.0, 0.0, 0.01, 0.0, 0.0, 0.0, 0.01)"
2025/07/11/14:07:35.093418,131,1752242855,93123083,imu_link,0.0025610828951547504,-0.009688731804039038,-0.9725806525827627,0.23234983010994642,"(0.001, 0.0, 0.0, 0.0, 0.001, 0.0, 0.0, 0.0, 0.001)",0.0,0.0,0.0,"(1e-05, 0.0, 0.0, 0.0, 1e-05, 0.0, 0.0, 0.0, 1e-05)",0.0,0.19619140625,9.80478515625,"(0.01, 0.0, 0.0, 0.0, 0.01, 0.0, 0.0, 0.0, 0.01)"
2025/07/11/14:07:35.143306,132,1752242855,142885053,imu_link,0.0025610828951547504,-0.009688731804039038,-0.9725806525827627,0.23234983010994642,"(0.001, 0.0, 0.0, 0.0, 0.001, 0.0, 0.0, 0.0, 0.001)",0.0,0.0,0.0,"(1e-05, 0.0, 0.0, 0.0, 1e-05, 0.0, 0.0, 0.0, 1e-05)",-0.00478515625,0.172265625,9.8287109375,"(0.01, 0.0, 0.0, 0.0, 0.01, 0.0, 0.0, 0.0, 0.01)"
2025/07/11/14:07:35.193697,133,1752242855,193191013,imu_link,0.0025610828951547504,-0.009688731804039038,-0.9725806525827627,0.23234983010994642,"(0.001, 0.0, 0.0, 0.0, 0.001, 0.0, 0.0, 0.0, 0.001)",0.0,0.0,0.0,"(1e-05, 0.0, 0.0, 0.0, 1e-05, 0.0, 0.0, 0.0, 1e-05)",-0.00478515625,0.172265625,9.8287109375,"(0.01, 0.0, 0.0, 0.0, 0.01, 0.0, 0.0, 0.0, 0.01)"
2025/07/11/14:07:35.193735,134,1752242855,193382914,imu_link,0.0025610828951547504,-0.009688731804039038,-0.9725806525827627,0.23234983010994642,"(0.001, 0.0, 0.0, 0.0, 0.001, 0.0, 0.0, 0.0, 0.001)",0.0,0.0,0.0,"(1e-05, 0.0, 0.0, 0.0, 1e-05, 0.0, 0.0, 0.0, 1e-05)",-0.00478515625,0.18662109375000002,9.795214843750001,"(0.01, 0.0, 0.0, 0.0, 0.01, 0.0, 0.0, 0.0, 0.01)"
2025/07/11/14:07:35.243860,135,1752242855,243415742,imu_link,0.0025610828951547504,-0.009688731804039038,-0.9725806525827627,0.23234983010994642,"(0.001, 0.0, 0.0, 0.0, 0.001, 0.0, 0.0, 0.0, 0.001)",0.0,0.0,0.0,"(1e-05, 0.0, 0.0, 0.0, 1e-05, 0.0, 0.0, 0.0, 1e-05)",0.0,0.172265625,9.814355468750001,"(0.01, 0.0, 0.0, 0.0, 0.01, 0.0, 0.0, 0.0, 0.01)"
2025/07/11/14:07:35.293863,136,1752242855,293375854,imu_link,0.0025610828951547504,-0.009688731804039038,-0.9725806525827627,0.23234983010994642,"(0.001, 0.0, 0.0, 0.0, 0.001, 0.0, 0.0, 0.0, 0.001)",0.0,0.0,0.0,"(1e-05, 0.0, 0.0, 0.0, 1e-05, 0.0, 0.0, 0.0, 1e-05)",0.0,0.172265625,9.814355468750001,"(0.01, 0.0, 0.0, 0.0, 0.01, 0.0, 0.0, 0.0, 0.01)"
2025/07/11/14:07:35.294067,137,1752242855,293733536,imu_link,0.0025610828951547504,-0.009688731804039038,-0.9725806525827627,0.23234983010994642,"(0.001, 0.0, 0.0, 0.0, 0.001, 0.0, 0.0, 0.0, 0.001)",0.0,0.0,0.0,"(1e-05, 0.0, 0.0, 0.0, 1e-05, 0.0, 0.0, 0.0, 1e-05)",0.0,0.18183593750000002,9.8095703125,"(0.01, 0.0, 0.0, 0.0, 0.01, 0.0, 0.0, 0.0, 0.01)"
2025/07/11/14:07:35.344297,138,1752242855,343881120,imu_link,0.0025610828951547504,-0.009688731804039038,-0.9725806525827627,0.23234983010994642,"(0.001, 0.0, 0.0, 0.0, 0.001, 0.0, 0.0, 0.0, 0.001)",0.0,0.0,0.0,"(1e-05, 0.0, 0.0, 0.0, 1e-05, 0.0, 0.0, 0.0, 1e-05)",0.0,0.18662109375000002,9.80478515625,"(0.01, 0.0, 0.0, 0.0, 0.01, 0.0, 0.0, 0.0, 0.01)"
2025/07/11/14:07:35.393900,139,1752242855,393365407,imu_link,0.002514460445404196,-0.009699870147117328,-0.9725805510442905,0.23235029963006656,"(0.001, 0.0, 0.0, 0.0, 0.001, 0.0, 0.0, 0.0, 0.001)",0.0,0.0,0.0,"(1e-05, 0.0, 0.0, 0.0, 1e-05, 0.0, 0.0, 0.0, 1e-05)",0.0,0.18662109375000002,9.80478515625,"(0.01, 0.0, 0.0, 0.0, 0.01, 0.0, 0.0, 0.0, 0.01)"
2025/07/11/14:07:35.394407,140,1752242855,394092113,imu_link,0.002514460445404196,-0.009699870147117328,-0.9725805510442905,0.23235029963006656,"(0.001, 0.0, 0.0, 0.0, 0.001, 0.0, 0.0, 0.0, 0.001)",0.0,0.0,0.0,"(1e-05, 0.0, 0.0, 0.0, 1e-05, 0.0, 0.0, 0.0, 1e-05)",-0.00478515625,0.17705078125,9.819140625000001,"(0.01, 0.0, 0.0, 0.0, 0.01, 0.0, 0.0, 0.0, 0.01)"
2025/07/11/14:07:35.444785,141,1752242855,444433861,imu_link,0.002514460445404196,-0.009699870147117328,-0.9725805510442905,0.23235029963006656,"(0.001, 0.0, 0.0, 0.0, 0.001, 0.0, 0.0, 0.0, 0.001)",0.0,0.0,0.0,"(1e-05, 0.0, 0.0, 0.0, 1e-05, 0.0, 0.0, 0.0, 1e-05)",-0.00478515625,0.18662109375000002,9.80478515625,"(0.01, 0.0, 0.0, 0.0, 0.01, 0.0, 0.0, 0.0, 0.01)"
2025/07/11/14:07:35.494025,142,1752242855,493420062,imu_link,0.002514460445404196,-0.009699870147117328,-0.9725805510442905,0.23235029963006656,"(0.001, 0.0, 0.0, 0.0, 0.001, 0.0, 0.0, 0.0, 0.001)",0.0,0.0,0.0,"(1e-05, 0.0, 0.0, 0.0, 1e-05, 0.0, 0.0, 0.0, 1e-05)",-0.00478515625,0.18662109375000002,9.80478515625,"(0.01, 0.0, 0.0, 0.0, 0.01, 0.0, 0.0, 0.0, 0.01)"
2025/07/11/14:07:35.494861,143,1752242855,494569382,imu_link,0.002514460445404196,-0.009699870147117328,-0.9725805510442905,0.23235029963006656,"(0.001, 0.0, 0.0, 0.0, 0.001, 0.0, 0.0, 0.0, 0.001)",0.0,0.0,0.0,"(1e-05, 0.0, 0.0, 0.0, 1e-05, 0.0, 0.0, 0.0, 1e-05)",0.0,0.18183593750000002,9.814355468750001,"(0.01, 0.0, 0.0, 0.0, 0.01, 0.0, 0.0, 0.0, 0.01)"
2025/07/11/14:07:35.545362,144,1752242855,544953470,imu_link,0.0025610828951547504,-0.009688731804039038,-0.9725806525827627,0.23234983010994642,"(0.001, 0.0, 0.0, 0.0, 0.001, 0.0, 0.0, 0.0, 0.001)",0.0,0.0,0.0,"(1e-05, 0.0, 0.0, 0.0, 1e-05, 0.0, 0.0, 0.0, 1e-05)",0.0,0.18183593750000002,9.8095703125,"(0.01, 0.0, 0.0, 0.0, 0.01, 0.0, 0.0, 0.0, 0.01)"
2025/07/11/14:07:35.593498,145,1752242855,593128958,imu_link,0.0025610828951547504,-0.009688731804039038,-0.9725806525827627,0.23234983010994642,"(0.001, 0.0, 0.0, 0.0, 0.001, 0.0, 0.0, 0.0, 0.001)",0.0,0.0,0.0,"(1e-05, 0.0, 0.0, 0.0, 1e-05, 0.0, 0.0, 0.0, 1e-05)",0.0,0.18183593750000002,9.8095703125,"(0.01, 0.0, 0.0, 0.0, 0.01, 0.0, 0.0, 0.0, 0.01)"
2025/07/11/14:07:35.595418,146,1752242855,595029920,imu_link,0.0025610828951547504,-0.009688731804039038,-0.9725806525827627,0.23234983010994642,"(0.001, 0.0, 0.0, 0.0, 0.001, 0.0, 0.0, 0.0, 0.001)",0.0,0.0,0.0,"(1e-05, 0.0, 0.0, 0.0, 1e-05, 0.0, 0.0, 0.0, 1e-05)",-0.00478515625,0.18183593750000002,9.8095703125,"(0.01, 0.0, 0.0, 0.0, 0.01, 0.0, 0.0, 0.0, 0.01)"
2025/07/11/14:07:35.645694,147,1752242855,645323448,imu_link,0.0025610828951547504,-0.009688731804039038,-0.9725806525827627,0.23234983010994642,"(0.001, 0.0, 0.0, 0.0, 0.001, 0.0, 0.0, 0.0, 0.001)",0.0,0.0,0.0,"(1e-05, 0.0, 0.0, 0.0, 1e-05, 0.0, 0.0, 0.0, 1e-05)",-0.00478515625,0.18183593750000002,9.8095703125,"(0.01, 0.0, 0.0, 0.0, 0.01, 0.0, 0.0, 0.0, 0.01)"
2025/07/11/14:07:35.693563,148,1752242855,693133890,imu_link,0.0025610828951547504,-0.009688731804039038,-0.9725806525827627,0.23234983010994642,"(0.001, 0.0, 0.0, 0.0, 0.001, 0.0, 0.0, 0.0, 0.001)",0.0,0.0,0.0,"(1e-05, 0.0, 0.0, 0.0, 1e-05, 0.0, 0.0, 0.0, 1e-05)",-0.00478515625,0.18183593750000002,9.8095703125,"(0.01, 0.0, 0.0, 0.0, 0.01, 0.0, 0.0, 0.0, 0.01)"
2025/07/11/14:07:35.696067,149,1752242855,695571370,imu_link,0.0025610828951547504,-0.009688731804039038,-0.9725806525827627,0.23234983010994642,"(0.001, 0.0, 0.0, 0.0, 0.001, 0.0, 0.0, 0.0, 0.001)",0.0,0.0,0.0,"(1e-05, 0.0, 0.0, 0.0, 1e-05, 0.0, 0.0, 0.0, 1e-05)",-0.00478515625,0.18183593750000002,9.8095703125,"(0.01, 0.0, 0.0, 0.0, 0.01, 0.0, 0.0, 0.0, 0.01)"
2025/07/11/14:07:35.746542,150,1752242855,745883413,imu_link,0.0025610828951547504,-0.009688731804039038,-0.9725806525827627,0.23234983010994642,"(0.001, 0.0, 0.0, 0.0, 0.001, 0.0, 0.0, 0.0, 0.001)",0.0,0.0,0.0,"(1e-05, 0.0, 0.0, 0.0, 1e-05, 0.0, 0.0, 0.0, 1e-05)",-0.00478515625,0.18183593750000002,9.814355468750001,"(0.01, 0.0, 0.0, 0.0, 0.01, 0.0, 0.0, 0.0, 0.01)"
2025/07/11/14:07:35.793711,151,1752242855,793170060,imu_link,0.0025610828951547504,-0.009688731804039038,-0.9725806525827627,0.23234983010994642,"(0.001, 0.0, 0.0, 0.0, 0.001, 0.0, 0.0, 0.0, 0.001)",0.0,0.0,0.0,"(1e-05, 0.0, 0.0, 0.0, 1e-05, 0.0, 0.0, 0.0, 1e-05)",-0.00478515625,0.18183593750000002,9.814355468750001,"(0.01, 0.0, 0.0, 0.0, 0.01, 0.0, 0.0, 0.0, 0.01)"
2025/07/11/14:07:35.796563,152,1752242855,796053108,imu_link,0.0025610828951547504,-0.009688731804039038,-0.9725806525827627,0.23234983010994642,"(0.001, 0.0, 0.0, 0.0, 0.001, 0.0, 0.0, 0.0, 0.001)",0.0,0.0,0.0,"(1e-05, 0.0, 0.0, 0.0, 1e-05, 0.0, 0.0, 0.0, 1e-05)",0.0,0.18183593750000002,9.80478515625,"(0.01, 0.0, 0.0, 0.0, 0.01, 0.0, 0.0, 0.0, 0.01)"
2025/07/11/14:07:35.846924,153,1752242855,846345705,imu_link,0.0025610828951547504,-0.009688731804039038,-0.9725806525827627,0.23234983010994642,"(0.001, 0.0, 0.0, 0.0, 0.001, 0.0, 0.0, 0.0, 0.001)",0.0,0.0,0.0,"(1e-05, 0.0, 0.0, 0.0, 1e-05, 0.0, 0.0, 0.0, 1e-05)",-0.00478515625,0.18183593750000002,9.8095703125,"(0.01, 0.0, 0.0, 0.0, 0.01, 0.0, 0.0, 0.0, 0.01)"
2025/07/11/14:07:35.893522,154,1752242855,893143282,imu_link,0.0025610828951547504,-0.009688731804039038,-0.9725806525827627,0.23234983010994642,"(0.001, 0.0, 0.0, 0.0, 0.001, 0.0, 0.0, 0.0, 0.001)",0.0,0.0,0.0,"(1e-05, 0.0, 0.0, 0.0, 1e-05, 0.0, 0.0, 0.0, 1e-05)",-0.00478515625,0.18183593750000002,9.8095703125,"(0.01, 0.0, 0.0, 0.0, 0.01, 0.0, 0.0, 0.0, 0.01)"
2025/07/11/14:07:35.896823,155,1752242855,896501273,imu_link,0.0025610828951547504,-0.009688731804039038,-0.9725806525827627,0.23234983010994642,"(0.001, 0.0, 0.0, 0.0, 0.001, 0.0, 0.0, 0.0, 0.001)",0.0,0.0,0.0,"(1e-05, 0.0, 0.0, 0.0, 1e-05, 0.0, 0.0, 0.0, 1e-05)",0.0,0.18183593750000002,9.8095703125,"(0.01, 0.0, 0.0, 0.0, 0.01, 0.0, 0.0, 0.0, 0.01)"
2025/07/11/14:07:35.947170,156,1752242855,946831340,imu_link,0.0025610828951547504,-0.009688731804039038,-0.9725806525827627,0.23234983010994642,"(0.001, 0.0, 0.0, 0.0, 0.001, 0.0, 0.0, 0.0, 0.001)",0.0,0.0,0.0,"(1e-05, 0.0, 0.0, 0.0, 1e-05, 0.0, 0.0, 0.0, 1e-05)",0.0,0.18183593750000002,9.8095703125,"(0.01, 0.0, 0.0, 0.0, 0.01, 0.0, 0.0, 0.0, 0.01)"
2025/07/11/14:07:35.993971,157,1752242855,993405127,imu_link,0.0025610828951547504,-0.009688731804039038,-0.9725806525827627,0.23234983010994642,"(0.001, 0.0, 0.0, 0.0, 0.001, 0.0, 0.0, 0.0, 0.001)",0.0,0.0,0.0,"(1e-05, 0.0, 0.0, 0.0, 1e-05, 0.0, 0.0, 0.0, 1e-05)",0.0,0.18183593750000002,9.8095703125,"(0.01, 0.0, 0.0, 0.0, 0.01, 0.0, 0.0, 0.0, 0.01)"
2025/07/11/14:07:35.997328,158,1752242855,997027294,imu_link,0.0025610828951547504,-0.009688731804039038,-0.9725806525827627,0.23234983010994642,"(0.001, 0.0, 0.0, 0.0, 0.001, 0.0, 0.0, 0.0, 0.001)",0.0,0.0,0.0,"(1e-05, 0.0, 0.0, 0.0, 1e-05, 0.0, 0.0, 0.0, 1e-05)",0.0,0.18183593750000002,9.8095703125,"(0.01, 0.0, 0.0, 0.0, 0.01, 0.0, 0.0, 0.0, 0.01)"
2025/07/11/14:07:36.047539,159,1752242856,47175280,imu_link,0.0025610828951547504,-0.009688731804039038,-0.9725806525827627,0.23234983010994642,"(0.001, 0.0, 0.0, 0.0, 0.001, 0.0, 0.0, 0.0, 0.001)",0.0,0.0,0.0,"(1e-05, 0.0, 0.0, 0.0, 1e-05, 0.0, 0.0, 0.0, 1e-05)",0.0,0.18183593750000002,9.8095703125,"(0.01, 0.0, 0.0, 0.0, 0.01, 0.0, 0.0, 0.0, 0.01)"
2025/07/11/14:07:36.093474,160,1752242856,93127269,imu_link,0.0025610828951547504,-0.009688731804039038,-0.9725806525827627,0.23234983010994642,"(0.001, 0.0, 0.0, 0.0, 0.001, 0.0, 0.0, 0.0, 0.001)",0.0,0.0,0.0,"(1e-05, 0.0, 0.0, 0.0, 1e-05, 0.0, 0.0, 0.0, 1e-05)",0.0,0.18183593750000002,9.8095703125,"(0.01, 0.0, 0.0, 0.0, 0.01, 0.0, 0.0, 0.0, 0.01)"
2025/07/11/14:07:36.097740,161,1752242856,97397705,imu_link,0.0025610828951547504,-0.009688731804039038,-0.9725806525827627,0.23234983010994642,"(0.001, 0.0, 0.0, 0.0, 0.001, 0.0, 0.0, 0.0, 0.001)",0.0,0.0,0.0,"(1e-05, 0.0, 0.0, 0.0, 1e-05, 0.0, 0.0, 0.0, 1e-05)",-0.00478515625,0.18183593750000002,9.8095703125,"(0.01, 0.0, 0.0, 0.0, 0.01, 0.0, 0.0, 0.0, 0.01)"
2025/07/11/14:07:36.148053,162,1752242856,147655927,imu_link,0.0025610828951547504,-0.009688731804039038,-0.9725806525827627,0.23234983010994642,"(0.001, 0.0, 0.0, 0.0, 0.001, 0.0, 0.0, 0.0, 0.001)",0.0,0.0,0.0,"(1e-05, 0.0, 0.0, 0.0, 1e-05, 0.0, 0.0, 0.0, 1e-05)",0.0,0.18183593750000002,9.8095703125,"(0.01, 0.0, 0.0, 0.0, 0.01, 0.0, 0.0, 0.0, 0.01)"
2025/07/11/14:07:36.193486,163,1752242856,193151759,imu_link,0.0025610828951547504,-0.009688731804039038,-0.9725806525827627,0.23234983010994642,"(0.001, 0.0, 0.0, 0.0, 0.001, 0.0, 0.0, 0.0, 0.001)",0.0,0.0,0.0,"(1e-05, 0.0, 0.0, 0.0, 1e-05, 0.0, 0.0, 0.0, 1e-05)",0.0,0.18183593750000002,9.8095703125,"(0.01, 0.0, 0.0, 0.0, 0.01, 0.0, 0.0, 0.0, 0.01)"
2025/07/11/14:07:36.198207,164,1752242856,197892439,imu_link,0.0025610828951547504,-0.009688731804039038,-0.9725806525827627,0.23234983010994642,"(0.001, 0.0, 0.0, 0.0, 0.001, 0.0, 0.0, 0.0, 0.001)",0.0,0.0,0.0,"(1e-05, 0.0, 0.0, 0.0, 1e-05, 0.0, 0.0, 0.0, 1e-05)",0.0,0.18183593750000002,9.8095703125,"(0.01, 0.0, 0.0, 0.0, 0.01, 0.0, 0.0, 0.0, 0.01)"
2025/07/11/14:07:36.248305,165,1752242856,248016258,imu_link,0.0025610828951547504,-0.009688731804039038,-0.9725806525827627,0.23234983010994642,"(0.001, 0.0, 0.0, 0.0, 0.001, 0.0, 0.0, 0.0, 0.001)",0.0,0.0,0.0,"(1e-05, 0.0, 0.0, 0.0, 1e-05, 0.0, 0.0, 0.0, 1e-05)",-0.00478515625,0.18183593750000002,9.8095703125,"(0.01, 0.0, 0.0, 0.0, 0.01, 0.0, 0.0, 0.0, 0.01)"
2025/07/11/14:07:36.293846,166,1752242856,293325760,imu_link,0.0025610828951547504,-0.009688731804039038,-0.9725806525827627,0.23234983010994642,"(0.001, 0.0, 0.0, 0.0, 0.001, 0.0, 0.0, 0.0, 0.001)",0.0,0.0,0.0,"(1e-05, 0.0, 0.0, 0.0, 1e-05, 0.0, 0.0, 0.0, 1e-05)",-0.00478515625,0.18183593750000002,9.8095703125,"(0.01, 0.0, 0.0, 0.0, 0.01, 0.0, 0.0, 0.0, 0.01)"
2025/07/11/14:07:36.298786,167,1752242856,298400127,imu_link,0.0025610828951547504,-0.009688731804039038,-0.9725806525827627,0.23234983010994642,"(0.001, 0.0, 0.0, 0.0, 0.001, 0.0, 0.0, 0.0, 0.001)",0.0,0.0,0.0,"(1e-05, 0.0, 0.0, 0.0, 1e-05, 0.0, 0.0, 0.0, 1e-05)",0.0,0.18183593750000002,9.8095703125,"(0.01, 0.0, 0.0, 0.0, 0.01, 0.0, 0.0, 0.0, 0.01)"
2025/07/11/14:07:36.348916,168,1752242856,348588378,imu_link,0.0025610828951547504,-0.009688731804039038,-0.9725806525827627,0.23234983010994642,"(0.001, 0.0, 0.0, 0.0, 0.001, 0.0, 0.0, 0.0, 0.001)",0.0,0.0,0.0,"(1e-05, 0.0, 0.0, 0.0, 1e-05, 0.0, 0.0, 0.0, 1e-05)",0.0,0.18183593750000002,9.8095703125,"(0.01, 0.0, 0.0, 0.0, 0.01, 0.0, 0.0, 0.0, 0.01)"
2025/07/11/14:07:36.393689,169,1752242856,393185401,imu_link,0.002514460445404196,-0.009699870147117328,-0.9725805510442905,0.23235029963006656,"(0.001, 0.0, 0.0, 0.0, 0.001, 0.0, 0.0, 0.0, 0.001)",0.0,0.0,0.0,"(1e-05, 0.0, 0.0, 0.0, 1e-05, 0.0, 0.0, 0.0, 1e-05)",0.0,0.18183593750000002,9.8095703125,"(0.01, 0.0, 0.0, 0.0, 0.01, 0.0, 0.0, 0.0, 0.01)"
2025/07/11/14:07:36.399214,170,1752242856,398800654,imu_link,0.002514460445404196,-0.009699870147117328,-0.9725805510442905,0.23235029963006656,"(0.001, 0.0, 0.0, 0.0, 0.001, 0.0, 0.0, 0.0, 0.001)",0.0,0.0,0.0,"(1e-05, 0.0, 0.0, 0.0, 1e-05, 0.0, 0.0, 0.0, 1e-05)",-0.00478515625,0.18183593750000002,9.814355468750001,"(0.01, 0.0, 0.0, 0.0, 0.01, 0.0, 0.0, 0.0, 0.01)"
2025/07/11/14:07:36.449442,171,1752242856,449092890,imu_link,0.002514460445404196,-0.009699870147117328,-0.9725805510442905,0.23235029963006656,"(0.001, 0.0, 0.0, 0.0, 0.001, 0.0, 0.0, 0.0, 0.001)",0.0,0.0,0.0,"(1e-05, 0.0, 0.0, 0.0, 1e-05, 0.0, 0.0, 0.0, 1e-05)",0.0,0.18183593750000002,9.8095703125,"(0.01, 0.0, 0.0, 0.0, 0.01, 0.0, 0.0, 0.0, 0.01)"
2025/07/11/14:07:36.493590,172,1752242856,493129339,imu_link,0.002514460445404196,-0.009699870147117328,-0.9725805510442905,0.23235029963006656,"(0.001, 0.0, 0.0, 0.0, 0.001, 0.0, 0.0, 0.0, 0.001)",0.0,0.0,0.0,"(1e-05, 0.0, 0.0, 0.0, 1e-05, 0.0, 0.0, 0.0, 1e-05)",0.0,0.18183593750000002,9.8095703125,"(0.01, 0.0, 0.0, 0.0, 0.01, 0.0, 0.0, 0.0, 0.01)"
2025/07/11/14:07:36.499617,173,1752242856,499236487,imu_link,0.002514460445404196,-0.009699870147117328,-0.9725805510442905,0.23235029963006656,"(0.001, 0.0, 0.0, 0.0, 0.001, 0.0, 0.0, 0.0, 0.001)",0.0,0.0,0.0,"(1e-05, 0.0, 0.0, 0.0, 1e-05, 0.0, 0.0, 0.0, 1e-05)",0.0,0.18183593750000002,9.8095703125,"(0.01, 0.0, 0.0, 0.0, 0.01, 0.0, 0.0, 0.0, 0.01)"
2025/07/11/14:07:36.549982,174,1752242856,549596661,imu_link,0.002514460445404196,-0.009699870147117328,-0.9725805510442905,0.23235029963006656,"(0.001, 0.0, 0.0, 0.0, 0.001, 0.0, 0.0, 0.0, 0.001)",0.0,0.0,0.0,"(1e-05, 0.0, 0.0, 0.0, 1e-05, 0.0, 0.0, 0.0, 1e-05)",0.0,0.18183593750000002,9.8095703125,"(0.01, 0.0, 0.0, 0.0, 0.01, 0.0, 0.0, 0.0, 0.01)"
2025/07/11/14:07:36.593805,175,1752242856,593252986,imu_link,0.002514460445404196,-0.009699870147117328,-0.9725805510442905,0.23235029963006656,"(0.001, 0.0, 0.0, 0.0, 0.001, 0.0, 0.0, 0.0, 0.001)",0.0,0.0,0.0,"(1e-05, 0.0, 0.0, 0.0, 1e-05, 0.0, 0.0, 0.0, 1e-05)",0.0,0.18183593750000002,9.8095703125,"(0.01, 0.0, 0.0, 0.0, 0.01, 0.0, 0.0, 0.0, 0.01)"
2025/07/11/14:07:36.600204,176,1752242856,599819957,imu_link,0.002514460445404196,-0.009699870147117328,-0.9725805510442905,0.23235029963006656,"(0.001, 0.0, 0.0, 0.0, 0.001, 0.0, 0.0, 0.0, 0.001)",0.0,0.0,0.0,"(1e-05, 0.0, 0.0, 0.0, 1e-05, 0.0, 0.0, 0.0, 1e-05)",-0.00478515625,0.18183593750000002,9.8095703125,"(0.01, 0.0, 0.0, 0.0, 0.01, 0.0, 0.0, 0.0, 0.01)"
2025/07/11/14:07:36.650485,177,1752242856,649988641,imu_link,0.002514460445404196,-0.009699870147117328,-0.9725805510442905,0.23235029963006656,"(0.001, 0.0, 0.0, 0.0, 0.001, 0.0, 0.0, 0.0, 0.001)",0.0,0.0,0.0,"(1e-05, 0.0, 0.0, 0.0, 1e-05, 0.0, 0.0, 0.0, 1e-05)",-0.00478515625,0.18183593750000002,9.8095703125,"(0.01, 0.0, 0.0, 0.0, 0.01, 0.0, 0.0, 0.0, 0.01)"
2025/07/11/14:07:36.693640,178,1752242856,693142222,imu_link,0.002514460445404196,-0.009699870147117328,-0.9725805510442905,0.23235029963006656,"(0.001, 0.0, 0.0, 0.0, 0.001, 0.0, 0.0, 0.0, 0.001)",0.0,0.0,0.0,"(1e-05, 0.0, 0.0, 0.0, 1e-05, 0.0, 0.0, 0.0, 1e-05)",-0.00478515625,0.18183593750000002,9.8095703125,"(0.01, 0.0, 0.0, 0.0, 0.01, 0.0, 0.0, 0.0, 0.01)"
2025/07/11/14:07:36.700838,179,1752242856,700466066,imu_link,0.002514460445404196,-0.009699870147117328,-0.9725805510442905,0.23235029963006656,"(0.001, 0.0, 0.0, 0.0, 0.001, 0.0, 0.0, 0.0, 0.001)",0.0,0.0,0.0,"(1e-05, 0.0, 0.0, 0.0, 1e-05, 0.0, 0.0, 0.0, 1e-05)",-0.00478515625,0.18183593750000002,9.8095703125,"(0.01, 0.0, 0.0, 0.0, 0.01, 0.0, 0.0, 0.0, 0.01)"
2025/07/11/14:07:36.750833,180,1752242856,750476472,imu_link,0.0025033222897190358,-0.009653247640536424,-0.9725810149085151,0.2323504198985382,"(0.001, 0.0, 0.0, 0.0, 0.001, 0.0, 0.0, 0.0, 0.001)",0.0,0.0,0.0,"(1e-05, 0.0, 0.0, 0.0, 1e-05, 0.0, 0.0, 0.0, 1e-05)",0.0,0.18183593750000002,9.8095703125,"(0.01, 0.0, 0.0, 0.0, 0.01, 0.0, 0.0, 0.0, 0.01)"
2025/07/11/14:07:36.793652,181,1752242856,793158667,imu_link,0.00254994476192336,-0.009642109292603491,-0.9725811159130495,0.23234995261335423,"(0.001, 0.0, 0.0, 0.0, 0.001, 0.0, 0.0, 0.0, 0.001)",0.0,0.0,0.0,"(1e-05, 0.0, 0.0, 0.0, 1e-05, 0.0, 0.0, 0.0, 1e-05)",0.0,0.18183593750000002,9.8095703125,"(0.01, 0.0, 0.0, 0.0, 0.01, 0.0, 0.0, 0.0, 0.01)"
2025/07/11/14:07:36.801143,182,1752242856,800834462,imu_link,0.00254994476192336,-0.009642109292603491,-0.9725811159130495,0.23234995261335423,"(0.001, 0.0, 0.0, 0.0, 0.001, 0.0, 0.0, 0.0, 0.001)",0.0,0.0,0.0,"(1e-05, 0.0, 0.0, 0.0, 1e-05, 0.0, 0.0, 0.0, 1e-05)",-0.00478515625,0.18183593750000002,9.8095703125,"(0.01, 0.0, 0.0, 0.0, 0.01, 0.0, 0.0, 0.0, 0.01)"
2025/07/11/14:07:36.851221,183,1752242856,850874685,imu_link,0.00254994476192336,-0.009642109292603491,-0.9725811159130495,0.23234995261335423,"(0.001, 0.0, 0.0, 0.0, 0.001, 0.0, 0.0, 0.0, 0.001)",0.0,0.0,0.0,"(1e-05, 0.0, 0.0, 0.0, 1e-05, 0.0, 0.0, 0.0, 1e-05)",-0.00478515625,0.18183593750000002,9.8095703125,"(0.01, 0.0, 0.0, 0.0, 0.01, 0.0, 0.0, 0.0, 0.01)"
2025/07/11/14:07:36.893346,184,1752242856,893110951,imu_link,0.0025610828951547504,-0.009688731804039038,-0.9725806525827627,0.23234983010994642,"(0.001, 0.0, 0.0, 0.0, 0.001, 0.0, 0.0, 0.0, 0.001)",0.0,0.0,0.0,"(1e-05, 0.0, 0.0, 0.0, 1e-05, 0.0, 0.0, 0.0, 1e-05)",-0.00478515625,0.18183593750000002,9.8095703125,"(0.01, 0.0, 0.0, 0.0, 0.01, 0.0, 0.0, 0.0, 0.01)"
2025/07/11/14:07:36.901413,185,1752242856,901109323,imu_link,0.0025610828951547504,-0.009688731804039038,-0.9725806525827627,0.23234983010994642,"(0.001, 0.0, 0.0, 0.0, 0.001, 0.0, 0.0, 0.0, 0.001)",0.0,0.0,0.0,"(1e-05, 0.0, 0.0, 0.0, 1e-05, 0.0, 0.0, 0.0, 1e-05)",-0.00478515625,0.18183593750000002,9.8095703125,"(0.01, 0.0, 0.0, 0.0, 0.01, 0.0, 0.0, 0.0, 0.01)"
2025/07/11/14:07:36.951633,186,1752242856,951333732,imu_link,0.0025610828951547504,-0.009688731804039038,-0.9725806525827627,0.23234983010994642,"(0.001, 0.0, 0.0, 0.0, 0.001, 0.0, 0.0, 0.0, 0.001)",0.0,0.0,0.0,"(1e-05, 0.0, 0.0, 0.0, 1e-05, 0.0, 0.0, 0.0, 1e-05)",0.0,0.18183593750000002,9.8095703125,"(0.01, 0.0, 0.0, 0.0, 0.01, 0.0, 0.0, 0.0, 0.01)"
2025/07/11/14:07:36.993375,187,1752242856,993107739,imu_link,0.00254994476192336,-0.009642109292603491,-0.9725811159130495,0.23234995261335423,"(0.001, 0.0, 0.0, 0.0, 0.001, 0.0, 0.0, 0.0, 0.001)",0.0,0.0,0.0,"(1e-05, 0.0, 0.0, 0.0, 1e-05, 0.0, 0.0, 0.0, 1e-05)",0.0,0.18183593750000002,9.8095703125,"(0.01, 0.0, 0.0, 0.0, 0.01, 0.0, 0.0, 0.0, 0.01)"
2025/07/11/14:07:37.001867,188,1752242857,1555836,imu_link,0.00254994476192336,-0.009642109292603491,-0.9725811159130495,0.23234995261335423,"(0.001, 0.0, 0.0, 0.0, 0.001, 0.0, 0.0, 0.0, 0.001)",0.0,0.0,0.0,"(1e-05, 0.0, 0.0, 0.0, 1e-05, 0.0, 0.0, 0.0, 1e-05)",0.0,0.18183593750000002,9.8095703125,"(0.01, 0.0, 0.0, 0.0, 0.01, 0.0, 0.0, 0.0, 0.01)"
2025/07/11/14:07:37.052240,189,1752242857,51842192,imu_link,0.00254994476192336,-0.009642109292603491,-0.9725811159130495,0.23234995261335423,"(0.001, 0.0, 0.0, 0.0, 0.001, 0.0, 0.0, 0.0, 0.001)",0.0,0.0,0.0,"(1e-05, 0.0, 0.0, 0.0, 1e-05, 0.0, 0.0, 0.0, 1e-05)",-0.00478515625,0.18183593750000002,9.8095703125,"(0.01, 0.0, 0.0, 0.0, 0.01, 0.0, 0.0, 0.0, 0.01)"
2025/07/11/14:07:37.093526,190,1752242857,93140646,imu_link,0.00254994476192336,-0.009642109292603491,-0.9725811159130495,0.23234995261335423,"(0.001, 0.0, 0.0, 0.0, 0.001, 0.0, 0.0, 0.0, 0.001)",0.0,0.0,0.0,"(1e-05, 0.0, 0.0, 0.0, 1e-05, 0.0, 0.0, 0.0, 1e-05)",-0.00478515625,0.18183593750000002,9.8095703125,"(0.01, 0.0, 0.0, 0.0, 0.01, 0.0, 0.0, 0.0, 0.01)"
2025/07/11/14:07:37.102585,191,1752242857,102137444,imu_link,0.00254994476192336,-0.009642109292603491,-0.9725811159130495,0.23234995261335423,"(0.001, 0.0, 0.0, 0.0, 0.001, 0.0, 0.0, 0.0, 0.001)",0.0,0.0,0.0,"(1e-05, 0.0, 0.0, 0.0, 1e-05, 0.0, 0.0, 0.0, 1e-05)",0.0,0.18183593750000002,9.8095703125,"(0.01, 0.0, 0.0, 0.0, 0.01, 0.0, 0.0, 0.0, 0.01)"
2025/07/11/14:07:37.152614,192,1752242857,152323472,imu_link,0.00254994476192336,-0.009642109292603491,-0.9725811159130495,0.23234995261335423,"(0.001, 0.0, 0.0, 0.0, 0.001, 0.0, 0.0, 0.0, 0.001)",0.0,0.0,0.0,"(1e-05, 0.0, 0.0, 0.0, 1e-05, 0.0, 0.0, 0.0, 1e-05)",0.0,0.18183593750000002,9.8095703125,"(0.01, 0.0, 0.0, 0.0, 0.01, 0.0, 0.0, 0.0, 0.01)"
2025/07/11/14:07:37.193453,193,1752242857,193133288,imu_link,0.00254994476192336,-0.009642109292603491,-0.9725811159130495,0.23234995261335423,"(0.001, 0.0, 0.0, 0.0, 0.001, 0.0, 0.0, 0.0, 0.001)",0.0,0.0,0.0,"(1e-05, 0.0, 0.0, 0.0, 1e-05, 0.0, 0.0, 0.0, 1e-05)",0.0,0.18183593750000002,9.8095703125,"(0.01, 0.0, 0.0, 0.0, 0.01, 0.0, 0.0, 0.0, 0.01)"
2025/07/11/14:07:37.202949,194,1752242857,202572147,imu_link,0.00254994476192336,-0.009642109292603491,-0.9725811159130495,0.23234995261335423,"(0.001, 0.0, 0.0, 0.0, 0.001, 0.0, 0.0, 0.0, 0.001)",0.0,0.0,0.0,"(1e-05, 0.0, 0.0, 0.0, 1e-05, 0.0, 0.0, 0.0, 1e-05)",0.0,0.18183593750000002,9.8095703125,"(0.01, 0.0, 0.0, 0.0, 0.01, 0.0, 0.0, 0.0, 0.01)"
2025/07/11/14:07:37.253223,195,1752242857,252893148,imu_link,0.00254994476192336,-0.009642109292603491,-0.9725811159130495,0.23234995261335423,"(0.001, 0.0, 0.0, 0.0, 0.001, 0.0, 0.0, 0.0, 0.001)",0.0,0.0,0.0,"(1e-05, 0.0, 0.0, 0.0, 1e-05, 0.0, 0.0, 0.0, 1e-05)",0.0,0.18183593750000002,9.8095703125,"(0.01, 0.0, 0.0, 0.0, 0.01, 0.0, 0.0, 0.0, 0.01)"
2025/07/11/14:07:37.293525,196,1752242857,293136099,imu_link,0.00254994476192336,-0.009642109292603491,-0.9725811159130495,0.23234995261335423,"(0.001, 0.0, 0.0, 0.0, 0.001, 0.0, 0.0, 0.0, 0.001)",0.0,0.0,0.0,"(1e-05, 0.0, 0.0, 0.0, 1e-05, 0.0, 0.0, 0.0, 1e-05)",0.0,0.18183593750000002,9.8095703125,"(0.01, 0.0, 0.0, 0.0, 0.01, 0.0, 0.0, 0.0, 0.01)"
2025/07/11/14:07:37.303473,197,1752242857,303113009,imu_link,0.00254994476192336,-0.009642109292603491,-0.9725811159130495,0.23234995261335423,"(0.001, 0.0, 0.0, 0.0, 0.001, 0.0, 0.0, 0.0, 0.001)",0.0,0.0,0.0,"(1e-05, 0.0, 0.0, 0.0, 1e-05, 0.0, 0.0, 0.0, 1e-05)",0.0,0.18183593750000002,9.8095703125,"(0.01, 0.0, 0.0, 0.0, 0.01, 0.0, 0.0, 0.0, 0.01)"
2025/07/11/14:07:37.353774,198,1752242857,353395788,imu_link,0.00254994476192336,-0.009642109292603491,-0.9725811159130495,0.23234995261335423,"(0.001, 0.0, 0.0, 0.0, 0.001, 0.0, 0.0, 0.0, 0.001)",0.0,0.0,0.0,"(1e-05, 0.0, 0.0, 0.0, 1e-05, 0.0, 0.0, 0.0, 1e-05)",-0.00478515625,0.18183593750000002,9.8095703125,"(0.01, 0.0, 0.0, 0.0, 0.01, 0.0, 0.0, 0.0, 0.01)"
2025/07/11/14:07:37.393633,199,1752242857,393133780,imu_link,0.00254994476192336,-0.009642109292603491,-0.9725811159130495,0.23234995261335423,"(0.001, 0.0, 0.0, 0.0, 0.001, 0.0, 0.0, 0.0, 0.001)",0.0,0.0,0.0,"(1e-05, 0.0, 0.0, 0.0, 1e-05, 0.0, 0.0, 0.0, 1e-05)",-0.00478515625,0.18183593750000002,9.8095703125,"(0.01, 0.0, 0.0, 0.0, 0.01, 0.0, 0.0, 0.0, 0.01)"
2025/07/11/14:07:37.404002,200,1752242857,403573991,imu_link,0.00254994476192336,-0.009642109292603491,-0.9725811159130495,0.23234995261335423,"(0.001, 0.0, 0.0, 0.0, 0.001, 0.0, 0.0, 0.0, 0.001)",0.0,0.0,0.0,"(1e-05, 0.0, 0.0, 0.0, 1e-05, 0.0, 0.0, 0.0, 1e-05)",-0.00478515625,0.18183593750000002,9.8095703125,"(0.01, 0.0, 0.0, 0.0, 0.01, 0.0, 0.0, 0.0, 0.01)"
2025/07/11/14:07:37.454237,201,1752242857,453872480,imu_link,0.00254994476192336,-0.009642109292603491,-0.9725811159130495,0.23234995261335423,"(0.001, 0.0, 0.0, 0.0, 0.001, 0.0, 0.0, 0.0, 0.001)",0.0,0.0,0.0,"(1e-05, 0.0, 0.0, 0.0, 1e-05, 0.0, 0.0, 0.0, 1e-05)",-0.00478515625,0.18183593750000002,9.8095703125,"(0.01, 0.0, 0.0, 0.0, 0.01, 0.0, 0.0, 0.0, 0.01)"
2025/07/11/14:07:37.493423,202,1752242857,493141711,imu_link,0.00254994476192336,-0.009642109292603491,-0.9725811159130495,0.23234995261335423,"(0.001, 0.0, 0.0, 0.0, 0.001, 0.0, 0.0, 0.0, 0.001)",0.0,0.0,0.0,"(1e-05, 0.0, 0.0, 0.0, 1e-05, 0.0, 0.0, 0.0, 1e-05)",-0.00478515625,0.18183593750000002,9.8095703125,"(0.01, 0.0, 0.0, 0.0, 0.01, 0.0, 0.0, 0.0, 0.01)"
2025/07/11/14:07:37.504332,203,1752242857,504021307,imu_link,0.00254994476192336,-0.009642109292603491,-0.9725811159130495,0.23234995261335423,"(0.001, 0.0, 0.0, 0.0, 0.001, 0.0, 0.0, 0.0, 0.001)",0.0,0.0,0.0,"(1e-05, 0.0, 0.0, 0.0, 1e-05, 0.0, 0.0, 0.0, 1e-05)",-0.00478515625,0.18183593750000002,9.8095703125,"(0.01, 0.0, 0.0, 0.0, 0.01, 0.0, 0.0, 0.0, 0.01)"
2025/07/11/14:07:37.554415,204,1752242857,554179382,imu_link,0.00254994476192336,-0.009642109292603491,-0.9725811159130495,0.23234995261335423,"(0.001, 0.0, 0.0, 0.0, 0.001, 0.0, 0.0, 0.0, 0.001)",0.0,0.0,0.0,"(1e-05, 0.0, 0.0, 0.0, 1e-05, 0.0, 0.0, 0.0, 1e-05)",-0.00478515625,0.18183593750000002,9.8095703125,"(0.01, 0.0, 0.0, 0.0, 0.01, 0.0, 0.0, 0.0, 0.01)"
2025/07/11/14:07:37.593378,205,1752242857,593130906,imu_link,0.00254994476192336,-0.009642109292603491,-0.9725811159130495,0.23234995261335423,"(0.001, 0.0, 0.0, 0.0, 0.001, 0.0, 0.0, 0.0, 0.001)",0.0,0.0,0.0,"(1e-05, 0.0, 0.0, 0.0, 1e-05, 0.0, 0.0, 0.0, 1e-05)",-0.00478515625,0.18183593750000002,9.8095703125,"(0.01, 0.0, 0.0, 0.0, 0.01, 0.0, 0.0, 0.0, 0.01)"
2025/07/11/14:07:37.604853,206,1752242857,604536942,imu_link,0.00254994476192336,-0.009642109292603491,-0.9725811159130495,0.23234995261335423,"(0.001, 0.0, 0.0, 0.0, 0.001, 0.0, 0.0, 0.0, 0.001)",0.0,0.0,0.0,"(1e-05, 0.0, 0.0, 0.0, 1e-05, 0.0, 0.0, 0.0, 1e-05)",0.0,0.18183593750000002,9.8095703125,"(0.01, 0.0, 0.0, 0.0, 0.01, 0.0, 0.0, 0.0, 0.01)"
2025/07/11/14:07:37.655123,207,1752242857,654789805,imu_link,0.00254994476192336,-0.009642109292603491,-0.9725811159130495,0.23234995261335423,"(0.001, 0.0, 0.0, 0.0, 0.001, 0.0, 0.0, 0.0, 0.001)",0.0,0.0,0.0,"(1e-05, 0.0, 0.0, 0.0, 1e-05, 0.0, 0.0, 0.0, 1e-05)",0.0,0.18183593750000002,9.8095703125,"(0.01, 0.0, 0.0, 0.0, 0.01, 0.0, 0.0, 0.0, 0.01)"
2025/07/11/14:07:37.693264,208,1752242857,693102448,imu_link,0.00254994476192336,-0.009642109292603491,-0.9725811159130495,0.23234995261335423,"(0.001, 0.0, 0.0, 0.0, 0.001, 0.0, 0.0, 0.0, 0.001)",0.0,0.0,0.0,"(1e-05, 0.0, 0.0, 0.0, 1e-05, 0.0, 0.0, 0.0, 1e-05)",0.0,0.18183593750000002,9.8095703125,"(0.01, 0.0, 0.0, 0.0, 0.01, 0.0, 0.0, 0.0, 0.01)"
2025/07/11/14:07:37.705027,209,1752242857,704879732,imu_link,0.00254994476192336,-0.009642109292603491,-0.9725811159130495,0.23234995261335423,"(0.001, 0.0, 0.0, 0.0, 0.001, 0.0, 0.0, 0.0, 0.001)",0.0,0.0,0.0,"(1e-05, 0.0, 0.0, 0.0, 1e-05, 0.0, 0.0, 0.0, 1e-05)",-0.00478515625,0.18183593750000002,9.8095703125,"(0.01, 0.0, 0.0, 0.0, 0.01, 0.0, 0.0, 0.0, 0.01)"
2025/07/11/14:07:37.755311,210,1752242857,755187027,imu_link,0.00254994476192336,-0.009642109292603491,-0.9725811159130495,0.23234995261335423,"(0.001, 0.0, 0.0, 0.0, 0.001, 0.0, 0.0, 0.0, 0.001)",0.0,0.0,0.0,"(1e-05, 0.0, 0.0, 0.0, 1e-05, 0.0, 0.0, 0.0, 1e-05)",-0.00478515625,0.18183593750000002,9.8095703125,"(0.01, 0.0, 0.0, 0.0, 0.01, 0.0, 0.0, 0.0, 0.01)"
2025/07/11/14:07:37.793262,211,1752242857,793105038,imu_link,0.00254994476192336,-0.009642109292603491,-0.9725811159130495,0.23234995261335423,"(0.001, 0.0, 0.0, 0.0, 0.001, 0.0, 0.0, 0.0, 0.001)",0.0,0.0,0.0,"(1e-05, 0.0, 0.0, 0.0, 1e-05, 0.0, 0.0, 0.0, 1e-05)",-0.00478515625,0.18183593750000002,9.8095703125,"(0.01, 0.0, 0.0, 0.0, 0.01, 0.0, 0.0, 0.0, 0.01)"
2025/07/11/14:07:37.805605,212,1752242857,805422918,imu_link,0.00254994476192336,-0.009642109292603491,-0.9725811159130495,0.23234995261335423,"(0.001, 0.0, 0.0, 0.0, 0.001, 0.0, 0.0, 0.0, 0.001)",0.0,0.0,0.0,"(1e-05, 0.0, 0.0, 0.0, 1e-05, 0.0, 0.0, 0.0, 1e-05)",-0.00478515625,0.18183593750000002,9.8095703125,"(0.01, 0.0, 0.0, 0.0, 0.01, 0.0, 0.0, 0.0, 0.01)"
2025/07/11/14:07:37.856085,213,1752242857,855722459,imu_link,0.00254994476192336,-0.009642109292603491,-0.9725811159130495,0.23234995261335423,"(0.001, 0.0, 0.0, 0.0, 0.001, 0.0, 0.0, 0.0, 0.001)",0.0,0.0,0.0,"(1e-05, 0.0, 0.0, 0.0, 1e-05, 0.0, 0.0, 0.0, 1e-05)",-0.00478515625,0.18183593750000002,9.8095703125,"(0.01, 0.0, 0.0, 0.0, 0.01, 0.0, 0.0, 0.0, 0.01)"
2025/07/11/14:07:37.893424,214,1752242857,893107859,imu_link,0.00254994476192336,-0.009642109292603491,-0.9725811159130495,0.23234995261335423,"(0.001, 0.0, 0.0, 0.0, 0.001, 0.0, 0.0, 0.0, 0.001)",0.0,0.0,0.0,"(1e-05, 0.0, 0.0, 0.0, 1e-05, 0.0, 0.0, 0.0, 1e-05)",-0.00478515625,0.18183593750000002,9.8095703125,"(0.01, 0.0, 0.0, 0.0, 0.01, 0.0, 0.0, 0.0, 0.01)"
2025/07/11/14:07:37.906328,215,1752242857,906027049,imu_link,0.00254994476192336,-0.009642109292603491,-0.9725811159130495,0.23234995261335423,"(0.001, 0.0, 0.0, 0.0, 0.001, 0.0, 0.0, 0.0, 0.001)",0.0,0.0,0.0,"(1e-05, 0.0, 0.0, 0.0, 1e-05, 0.0, 0.0, 0.0, 1e-05)",0.0,0.18183593750000002,9.8095703125,"(0.01, 0.0, 0.0, 0.0, 0.01, 0.0, 0.0, 0.0, 0.01)"
2025/07/11/14:07:37.956512,216,1752242857,956222424,imu_link,0.00254994476192336,-0.009642109292603491,-0.9725811159130495,0.23234995261335423,"(0.001, 0.0, 0.0, 0.0, 0.001, 0.0, 0.0, 0.0, 0.001)",0.0,0.0,0.0,"(1e-05, 0.0, 0.0, 0.0, 1e-05, 0.0, 0.0, 0.0, 1e-05)",-0.00478515625,0.18183593750000002,9.8095703125,"(0.01, 0.0, 0.0, 0.0, 0.01, 0.0, 0.0, 0.0, 0.01)"
2025/07/11/14:07:37.993598,217,1752242857,993140175,imu_link,0.00254994476192336,-0.009642109292603491,-0.9725811159130495,0.23234995261335423,"(0.001, 0.0, 0.0, 0.0, 0.001, 0.0, 0.0, 0.0, 0.001)",0.0,0.0,0.0,"(1e-05, 0.0, 0.0, 0.0, 1e-05, 0.0, 0.0, 0.0, 1e-05)",-0.00478515625,0.18183593750000002,9.8095703125,"(0.01, 0.0, 0.0, 0.0, 0.01, 0.0, 0.0, 0.0, 0.01)"
2025/07/11/14:07:38.006705,218,1752242858,6457323,imu_link,0.00254994476192336,-0.009642109292603491,-0.9725811159130495,0.23234995261335423,"(0.001, 0.0, 0.0, 0.0, 0.001, 0.0, 0.0, 0.0, 0.001)",0.0,0.0,0.0,"(1e-05, 0.0, 0.0, 0.0, 1e-05, 0.0, 0.0, 0.0, 1e-05)",-0.00478515625,0.18183593750000002,9.8095703125,"(0.01, 0.0, 0.0, 0.0, 0.01, 0.0, 0.0, 0.0, 0.01)"
2025/07/11/14:07:38.057093,219,1752242858,56752366,imu_link,0.00254994476192336,-0.009642109292603491,-0.9725811159130495,0.23234995261335423,"(0.001, 0.0, 0.0, 0.0, 0.001, 0.0, 0.0, 0.0, 0.001)",0.0,0.0,0.0,"(1e-05, 0.0, 0.0, 0.0, 1e-05, 0.0, 0.0, 0.0, 1e-05)",-0.00478515625,0.18183593750000002,9.8095703125,"(0.01, 0.0, 0.0, 0.0, 0.01, 0.0, 0.0, 0.0, 0.01)"
2025/07/11/14:07:38.093535,220,1752242858,93138248,imu_link,0.00254994476192336,-0.009642109292603491,-0.9725811159130495,0.23234995261335423,"(0.001, 0.0, 0.0, 0.0, 0.001, 0.0, 0.0, 0.0, 0.001)",0.0,0.0,0.0,"(1e-05, 0.0, 0.0, 0.0, 1e-05, 0.0, 0.0, 0.0, 1e-05)",-0.00478515625,0.18183593750000002,9.8095703125,"(0.01, 0.0, 0.0, 0.0, 0.01, 0.0, 0.0, 0.0, 0.01)"
2025/07/11/14:07:38.107273,221,1752242858,106961407,imu_link,0.00254994476192336,-0.009642109292603491,-0.9725811159130495,0.23234995261335423,"(0.001, 0.0, 0.0, 0.0, 0.001, 0.0, 0.0, 0.0, 0.001)",0.0,0.0,0.0,"(1e-05, 0.0, 0.0, 0.0, 1e-05, 0.0, 0.0, 0.0, 1e-05)",0.0,0.18183593750000002,9.8095703125,"(0.01, 0.0, 0.0, 0.0, 0.01, 0.0, 0.0, 0.0, 0.01)"
2025/07/11/14:07:38.157482,222,1752242858,157203030,imu_link,0.00254994476192336,-0.009642109292603491,-0.9725811159130495,0.23234995261335423,"(0.001, 0.0, 0.0, 0.0, 0.001, 0.0, 0.0, 0.0, 0.001)",0.0,0.0,0.0,"(1e-05, 0.0, 0.0, 0.0, 1e-05, 0.0, 0.0, 0.0, 1e-05)",0.0,0.18183593750000002,9.8095703125,"(0.01, 0.0, 0.0, 0.0, 0.01, 0.0, 0.0, 0.0, 0.01)"
2025/07/11/14:07:38.193517,223,1752242858,193154896,imu_link,0.00254994476192336,-0.009642109292603491,-0.9725811159130495,0.23234995261335423,"(0.001, 0.0, 0.0, 0.0, 0.001, 0.0, 0.0, 0.0, 0.001)",0.0,0.0,0.0,"(1e-05, 0.0, 0.0, 0.0, 1e-05, 0.0, 0.0, 0.0, 1e-05)",0.0,0.18183593750000002,9.8095703125,"(0.01, 0.0, 0.0, 0.0, 0.01, 0.0, 0.0, 0.0, 0.01)"
2025/07/11/14:07:38.207928,224,1752242858,207557124,imu_link,0.00254994476192336,-0.009642109292603491,-0.9725811159130495,0.23234995261335423,"(0.001, 0.0, 0.0, 0.0, 0.001, 0.0, 0.0, 0.0, 0.001)",0.0,0.0,0.0,"(1e-05, 0.0, 0.0, 0.0, 1e-05, 0.0, 0.0, 0.0, 1e-05)",0.0,0.18183593750000002,9.8095703125,"(0.01, 0.0, 0.0, 0.0, 0.01, 0.0, 0.0, 0.0, 0.01)"
2025/07/11/14:07:38.258400,225,1752242858,258126532,imu_link,0.00254994476192336,-0.009642109292603491,-0.9725811159130495,0.23234995261335423,"(0.001, 0.0, 0.0, 0.0, 0.001, 0.0, 0.0, 0.0, 0.001)",0.0,0.0,0.0,"(1e-05, 0.0, 0.0, 0.0, 1e-05, 0.0, 0.0, 0.0, 1e-05)",-0.00478515625,0.18183593750000002,9.814355468750001,"(0.01, 0.0, 0.0, 0.0, 0.01, 0.0, 0.0, 0.0, 0.01)"
2025/07/11/14:07:38.293357,226,1752242858,293116241,imu_link,0.00254994476192336,-0.009642109292603491,-0.9725811159130495,0.23234995261335423,"(0.001, 0.0, 0.0, 0.0, 0.001, 0.0, 0.0, 0.0, 0.001)",0.0,0.0,0.0,"(1e-05, 0.0, 0.0, 0.0, 1e-05, 0.0, 0.0, 0.0, 1e-05)",-0.00478515625,0.18183593750000002,9.814355468750001,"(0.01, 0.0, 0.0, 0.0, 0.01, 0.0, 0.0, 0.0, 0.01)"
2025/07/11/14:07:38.308049,227,1752242858,307857305,imu_link,0.00254994476192336,-0.009642109292603491,-0.9725811159130495,0.23234995261335423,"(0.001, 0.0, 0.0, 0.0, 0.001, 0.0, 0.0, 0.0, 0.001)",0.0,0.0,0.0,"(1e-05, 0.0, 0.0, 0.0, 1e-05, 0.0, 0.0, 0.0, 1e-05)",0.0,0.18183593750000002,9.8095703125,"(0.01, 0.0, 0.0, 0.0, 0.01, 0.0, 0.0, 0.0, 0.01)"
2025/07/11/14:07:38.358825,228,1752242858,358523726,imu_link,0.00254994476192336,-0.009642109292603491,-0.9725811159130495,0.23234995261335423,"(0.001, 0.0, 0.0, 0.0, 0.001, 0.0, 0.0, 0.0, 0.001)",0.0,0.0,0.0,"(1e-05, 0.0, 0.0, 0.0, 1e-05, 0.0, 0.0, 0.0, 1e-05)",1.91884765625,-0.40673828125000006,8.6515625,"(0.01, 0.0, 0.0, 0.0, 0.01, 0.0, 0.0, 0.0, 0.01)"
2025/07/11/14:07:38.393818,229,1752242858,393406814,imu_link,0.00254994476192336,-0.009642109292603491,-0.9725811159130495,0.23234995261335423,"(0.001, 0.0, 0.0, 0.0, 0.001, 0.0, 0.0, 0.0, 0.001)",-0.011717908596462675,0.007456850925021701,0.0,"(1e-05, 0.0, 0.0, 0.0, 1e-05, 0.0, 0.0, 0.0, 1e-05)",1.91884765625,-0.40673828125000006,8.6515625,"(0.01, 0.0, 0.0, 0.0, 0.01, 0.0, 0.0, 0.0, 0.01)"
2025/07/11/14:07:38.408720,230,1752242858,408480964,imu_link,0.00254994476192336,-0.009642109292603491,-0.9725811159130495,0.23234995261335423,"(0.001, 0.0, 0.0, 0.0, 0.001, 0.0, 0.0, 0.0, 0.001)",-0.011717908596462675,0.007456850925021701,0.0,"(1e-05, 0.0, 0.0, 0.0, 1e-05, 0.0, 0.0, 0.0, 1e-05)",0.15791015625000002,-1.3350585937500001,10.6134765625,"(0.01, 0.0, 0.0, 0.0, 0.01, 0.0, 0.0, 0.0, 0.01)"
2025/07/11/14:07:38.459073,231,1752242858,458757512,imu_link,0.002896420818731273,-0.006954935577273909,-0.9739999847863633,0.22642276664178598,"(0.001, 0.0, 0.0, 0.0, 0.001, 0.0, 0.0, 0.0, 0.001)",-0.07350324483235678,0.060720071818033856,-0.34834146464029947,"(1e-05, 0.0, 0.0, 0.0, 1e-05, 0.0, 0.0, 0.0, 1e-05)",-0.5263671875,-1.052734375,10.268945312500001,"(0.01, 0.0, 0.0, 0.0, 0.01, 0.0, 0.0, 0.0, 0.01)"
2025/07/11/14:07:38.493439,232,1752242858,493131504,imu_link,0.0025591048827146388,-0.006012356864371435,-0.9763194586212929,0.21623509720801676,"(0.001, 0.0, 0.0, 0.0, 0.001, 0.0, 0.0, 0.0, 0.001)",0.06391586507161459,0.005326322089301215,-0.4090615364583333,"(1e-05, 0.0, 0.0, 0.0, 1e-05, 0.0, 0.0, 0.0, 1e-05)",-0.5263671875,-1.052734375,10.268945312500001,"(0.01, 0.0, 0.0, 0.0, 0.01, 0.0, 0.0, 0.0, 0.01)"
2025/07/11/14:07:38.509354,233,1752242858,509010266,imu_link,0.0025591048827146388,-0.006012356864371435,-0.9763194586212929,0.21623509720801676,"(0.001, 0.0, 0.0, 0.0, 0.001, 0.0, 0.0, 0.0, 0.001)",0.06391586507161459,0.005326322089301215,-0.4090615364583333,"(1e-05, 0.0, 0.0, 0.0, 1e-05, 0.0, 0.0, 0.0, 1e-05)",-0.7369140625,-0.29189453125000003,9.49375,"(0.01, 0.0, 0.0, 0.0, 0.01, 0.0, 0.0, 0.0, 0.01)"
2025/07/11/14:07:38.559528,234,1752242858,559232432,imu_link,0.0022195967346304146,-0.006341594545345072,-0.9784451384453435,0.20639759839114055,"(0.001, 0.0, 0.0, 0.0, 0.001, 0.0, 0.0, 0.0, 0.001)",0.0468716343858507,-0.03621899020724827,-0.38456045484754775,"(1e-05, 0.0, 0.0, 0.0, 1e-05, 0.0, 0.0, 0.0, 1e-05)",-0.033496093750000004,-0.31582031250000003,9.85263671875,"(0.01, 0.0, 0.0, 0.0, 0.01, 0.0, 0.0, 0.0, 0.01)"
2025/07/11/14:07:38.593449,235,1752242858,593121342,imu_link,0.0021551396128559152,-0.006068993733536223,-0.9801819407834315,0.19799466066118318,"(0.001, 0.0, 0.0, 0.0, 0.001, 0.0, 0.0, 0.0, 0.001)",0.015978966267903648,-0.011717908596462675,-0.3557983155653212,"(1e-05, 0.0, 0.0, 0.0, 1e-05, 0.0, 0.0, 0.0, 1e-05)",-0.033496093750000004,-0.31582031250000003,9.85263671875,"(0.01, 0.0, 0.0, 0.0, 0.01, 0.0, 0.0, 0.0, 0.01)"
2025/07/11/14:07:38.609797,236,1752242858,609496336,imu_link,0.0021551396128559152,-0.006068993733536223,-0.9801819407834315,0.19799466066118318,"(0.001, 0.0, 0.0, 0.0, 0.001, 0.0, 0.0, 0.0, 0.001)",0.015978966267903648,-0.011717908596462675,-0.3557983155653212,"(1e-05, 0.0, 0.0, 0.0, 1e-05, 0.0, 0.0, 0.0, 1e-05)",0.32060546875,-0.033496093750000004,9.838281250000001,"(0.01, 0.0, 0.0, 0.0, 0.01, 0.0, 0.0, 0.0, 0.01)"
2025/07/11/14:07:38.660137,237,1752242858,659792561,imu_link,0.0021421198521303533,-0.006030697184504539,-0.9818087045240635,0.1897648801406316,"(0.001, 0.0, 0.0, 0.0, 0.001, 0.0, 0.0, 0.0, 0.001)",0.047936898803710944,-0.015978966267903648,-0.3568635799831814,"(1e-05, 0.0, 0.0, 0.0, 1e-05, 0.0, 0.0, 0.0, 1e-05)",0.09091796875000001,0.23447265625000002,9.340625000000001,"(0.01, 0.0, 0.0, 0.0, 0.01, 0.0, 0.0, 0.0, 0.01)"
2025/07/11/14:07:38.693785,238,1752242858,693302459,imu_link,0.0019653687072016023,-0.006169500224611245,-0.9834262977191203,0.18119269176014624,"(0.001, 0.0, 0.0, 0.0, 0.001, 0.0, 0.0, 0.0, 0.001)",0.012783173014322916,0.03302319695366754,-0.3557983155653212,"(1e-05, 0.0, 0.0, 0.0, 1e-05, 0.0, 0.0, 0.0, 1e-05)",0.09091796875000001,0.23447265625000002,9.340625000000001,"(0.01, 0.0, 0.0, 0.0, 0.01, 0.0, 0.0, 0.0, 0.01)"
2025/07/11/14:07:38.710256,239,1752242858,709984090,imu_link,0.0019653687072016023,-0.006169500224611245,-0.9834262977191203,0.18119269176014624,"(0.001, 0.0, 0.0, 0.0, 0.001, 0.0, 0.0, 0.0, 0.001)",0.012783173014322916,0.03302319695366754,-0.3557983155653212,"(1e-05, 0.0, 0.0, 0.0, 1e-05, 0.0, 0.0, 0.0, 1e-05)",0.15791015625000002,0.0095703125,9.8287109375,"(0.01, 0.0, 0.0, 0.0, 0.01, 0.0, 0.0, 0.0, 0.01)"
2025/07/11/14:07:38.760536,240,1752242858,760216545,imu_link,0.0021482911790690756,-0.005559731399352475,-0.984798821980253,0.17359652778233428,"(0.001, 0.0, 0.0, 0.0, 0.001, 0.0, 0.0, 0.0, 0.001)",0.005326322089301215,0.02343581719292535,-0.31531826768663196,"(1e-05, 0.0, 0.0, 0.0, 1e-05, 0.0, 0.0, 0.0, 1e-05)",-0.0095703125,-0.04306640625,9.862207031250001,"(0.01, 0.0, 0.0, 0.0, 0.01, 0.0, 0.0, 0.0, 0.01)"
2025/07/11/14:07:38.793750,241,1752242858,793309259,imu_link,0.0026971892688772824,-0.005038392099520349,-0.9860554491496355,0.16631894353142632,"(0.001, 0.0, 0.0, 0.0, 0.001, 0.0, 0.0, 0.0, 0.001)",0.015978966267903648,0.0766990380859375,-0.302535094672309,"(1e-05, 0.0, 0.0, 0.0, 1e-05, 0.0, 0.0, 0.0, 1e-05)",-0.0095703125,-0.04306640625,9.862207031250001,"(0.01, 0.0, 0.0, 0.0, 0.01, 0.0, 0.0, 0.0, 0.01)"
2025/07/11/14:07:38.810688,242,1752242858,810422340,imu_link,0.0026971892688772824,-0.005038392099520349,-0.9860554491496355,0.16631894353142632,"(0.001, 0.0, 0.0, 0.0, 0.001, 0.0, 0.0, 0.0, 0.001)",0.015978966267903648,0.0766990380859375,-0.302535094672309,"(1e-05, 0.0, 0.0, 0.0, 1e-05, 0.0, 0.0, 0.0, 1e-05)",-0.440234375,0.19140625,9.80478515625,"(0.01, 0.0, 0.0, 0.0, 0.01, 0.0, 0.0, 0.0, 0.01)"
2025/07/11/14:07:38.860913,243,1752242858,860677098,imu_link,0.0034044397518716873,-0.004839724747826009,-0.9871718469441682,0.15955165763846257,"(0.001, 0.0, 0.0, 0.0, 0.001, 0.0, 0.0, 0.0, 0.001)",0.009587379760742188,0.002130528835720486,-0.29614350816514756,"(1e-05, 0.0, 0.0, 0.0, 1e-05, 0.0, 0.0, 0.0, 1e-05)",-0.26796875000000003,0.21054687500000002,9.73779296875,"(0.01, 0.0, 0.0, 0.0, 0.01, 0.0, 0.0, 0.0, 0.01)"
2025/07/11/14:07:38.893547,244,1752242858,893140478,imu_link,0.0040568469735655106,-0.004902125690765555,-0.9882256270300482,0.15287125706754923,"(0.001, 0.0, 0.0, 0.0, 0.001, 0.0, 0.0, 0.0, 0.001)",0.03621899020724827,0.047936898803710944,-0.311057210015191,"(1e-05, 0.0, 0.0, 0.0, 1e-05, 0.0, 0.0, 0.0, 1e-05)",-0.26796875000000003,0.21054687500000002,9.73779296875,"(0.01, 0.0, 0.0, 0.0, 0.01, 0.0, 0.0, 0.0, 0.01)"
2025/07/11/14:07:38.911222,245,1752242858,910927757,imu_link,0.0040568469735655106,-0.004902125690765555,-0.9882256270300482,0.15287125706754923,"(0.001, 0.0, 0.0, 0.0, 0.001, 0.0, 0.0, 0.0, 0.001)",0.03621899020724827,0.047936898803710944,-0.311057210015191,"(1e-05, 0.0, 0.0, 0.0, 1e-05, 0.0, 0.0, 0.0, 1e-05)",0.44501953125000004,-0.10527343750000001,9.910058593750001,"(0.01, 0.0, 0.0, 0.0, 0.01, 0.0, 0.0, 0.0, 0.01)"
2025/07/11/14:07:38.961431,246,1752242858,961149763,imu_link,0.004259346127206181,-0.005235793075782412,-0.9893180629308548,0.14561667074953116,"(0.001, 0.0, 0.0, 0.0, 0.001, 0.0, 0.0, 0.0, 0.001)",0.01065264417860243,-0.025566346028645832,-0.33768882046169707,"(1e-05, 0.0, 0.0, 0.0, 1e-05, 0.0, 0.0, 0.0, 1e-05)",0.45937500000000003,0.028710937500000002,9.7330078125,"(0.01, 0.0, 0.0, 0.0, 0.01, 0.0, 0.0, 0.0, 0.01)"
2025/07/11/14:07:38.993768,247,1752242858,993306618,imu_link,0.004546504685957574,-0.005563987913547157,-0.9904956196065395,0.13735646644368787,"(0.001, 0.0, 0.0, 0.0, 0.001, 0.0, 0.0, 0.0, 0.001)",0.001065264417860243,0.003195793253580729,-0.37710360392252606,"(1e-05, 0.0, 0.0, 0.0, 1e-05, 0.0, 0.0, 0.0, 1e-05)",0.45937500000000003,0.028710937500000002,9.7330078125,"(0.01, 0.0, 0.0, 0.0, 0.01, 0.0, 0.0, 0.0, 0.01)"
2025/07/11/14:07:39.011559,248,1752242859,11365407,imu_link,0.004546504685957574,-0.005563987913547157,-0.9904956196065395,0.13735646644368787,"(0.001, 0.0, 0.0, 0.0, 0.001, 0.0, 0.0, 0.0, 0.001)",0.001065264417860243,0.003195793253580729,-0.37710360392252606,"(1e-05, 0.0, 0.0, 0.0, 1e-05, 0.0, 0.0, 0.0, 1e-05)",0.11484375000000001,0.23447265625000002,9.723437500000001,"(0.01, 0.0, 0.0, 0.0, 0.01, 0.0, 0.0, 0.0, 0.01)"
2025/07/11/14:07:39.061898,249,1752242859,61633009,imu_link,0.005361767254386246,-0.005591271727200314,-0.9917451466481769,0.1279904419562976,"(0.001, 0.0, 0.0, 0.0, 0.001, 0.0, 0.0, 0.0, 0.001)",-0.01384843743218316,0.03728425462510851,-0.4154531229654948,"(1e-05, 0.0, 0.0, 0.0, 1e-05, 0.0, 0.0, 0.0, 1e-05)",-0.41630859375,0.27753906250000004,9.94833984375,"(0.01, 0.0, 0.0, 0.0, 0.01, 0.0, 0.0, 0.0, 0.01)"
2025/07/11/14:07:39.094043,250,1752242859,93471906,imu_link,0.006067611150011357,-0.005553539977858902,-0.9929631094256981,0.11813807857035574,"(0.001, 0.0, 0.0, 0.0, 0.001, 0.0, 0.0, 0.0, 0.001)",0.001065264417860243,0.002130528835720486,-0.42397523830837675,"(1e-05, 0.0, 0.0, 0.0, 1e-05, 0.0, 0.0, 0.0, 1e-05)",-0.41630859375,0.27753906250000004,9.94833984375,"(0.01, 0.0, 0.0, 0.0, 0.01, 0.0, 0.0, 0.0, 0.01)"
2025/07/11/14:07:39.112043,251,1752242859,111823005,imu_link,0.006067611150011357,-0.005553539977858902,-0.9929631094256981,0.11813807857035574,"(0.001, 0.0, 0.0, 0.0, 0.001, 0.0, 0.0, 0.0, 0.001)",0.001065264417860243,0.002130528835720486,-0.42397523830837675,"(1e-05, 0.0, 0.0, 0.0, 1e-05, 0.0, 0.0, 0.0, 1e-05)",0.23447265625000002,-0.04306640625,9.886132812500001,"(0.01, 0.0, 0.0, 0.0, 0.01, 0.0, 0.0, 0.0, 0.01)"
2025/07/11/14:07:39.162487,252,1752242859,162119060,imu_link,0.006549748884591597,-0.005648195569472333,-0.994026115322183,0.10879926807588489,"(0.001, 0.0, 0.0, 0.0, 0.001, 0.0, 0.0, 0.0, 0.001)",0.01065264417860243,0.04154531229654948,-0.4037352143690321,"(1e-05, 0.0, 0.0, 0.0, 1e-05, 0.0, 0.0, 0.0, 1e-05)",0.0765625,0.09091796875000001,9.85263671875,"(0.01, 0.0, 0.0, 0.0, 0.01, 0.0, 0.0, 0.0, 0.01)"
2025/07/11/14:07:39.193471,253,1752242859,193142686,imu_link,0.007523544849799427,-0.005845609725309494,-0.9949686697613652,0.09973249878114866,"(0.001, 0.0, 0.0, 0.0, 0.001, 0.0, 0.0, 0.0, 0.001)",0.007456850925021701,0.03302319695366754,-0.38775624810112846,"(1e-05, 0.0, 0.0, 0.0, 1e-05, 0.0, 0.0, 0.0, 1e-05)",0.0765625,0.09091796875000001,9.85263671875,"(0.01, 0.0, 0.0, 0.0, 0.01, 0.0, 0.0, 0.0, 0.01)"
2025/07/11/14:07:39.212749,254,1752242859,212390600,imu_link,0.007523544849799427,-0.005845609725309494,-0.9949686697613652,0.09973249878114866,"(0.001, 0.0, 0.0, 0.0, 0.001, 0.0, 0.0, 0.0, 0.001)",0.007456850925021701,0.03302319695366754,-0.38775624810112846,"(1e-05, 0.0, 0.0, 0.0, 1e-05, 0.0, 0.0, 0.0, 1e-05)",0.00478515625,0.23447265625000002,9.8287109375,"(0.01, 0.0, 0.0, 0.0, 0.01, 0.0, 0.0, 0.0, 0.01)"
2025/07/11/14:07:39.262991,255,1752242859,262598400,imu_link,0.008083810498814348,-0.005759145578761344,-0.9958017252534341,0.09099674847106393,"(0.001, 0.0, 0.0, 0.0, 0.001, 0.0, 0.0, 0.0, 0.001)",-0.012783173014322916,0.022370552775065104,-0.39095204135470923,"(1e-05, 0.0, 0.0, 0.0, 1e-05, 0.0, 0.0, 0.0, 1e-05)",-0.4498046875,0.23925781250000003,9.886132812500001,"(0.01, 0.0, 0.0, 0.0, 0.01, 0.0, 0.0, 0.0, 0.01)"
2025/07/11/14:07:39.293722,256,1752242859,293184823,imu_link,0.008802959912403222,-0.005865590763584608,-0.9965869385259197,0.0818692659140756,"(0.001, 0.0, 0.0, 0.0, 0.001, 0.0, 0.0, 0.0, 0.001)",0.0,0.015978966267903648,-0.4058657432047526,"(1e-05, 0.0, 0.0, 0.0, 1e-05, 0.0, 0.0, 0.0, 1e-05)",-0.4498046875,0.23925781250000003,9.886132812500001,"(0.01, 0.0, 0.0, 0.0, 0.01, 0.0, 0.0, 0.0, 0.01)"
2025/07/11/14:07:39.313211,257,1752242859,312900427,imu_link,0.008802959912403222,-0.005865590763584608,-0.9965869385259197,0.0818692659140756,"(0.001, 0.0, 0.0, 0.0, 0.001, 0.0, 0.0, 0.0, 0.001)",0.0,0.015978966267903648,-0.4058657432047526,"(1e-05, 0.0, 0.0, 0.0, 1e-05, 0.0, 0.0, 0.0, 1e-05)",0.11962890625000001,0.014355468750000001,9.819140625000001,"(0.01, 0.0, 0.0, 0.0, 0.01, 0.0, 0.0, 0.0, 0.01)"
2025/07/11/14:07:39.363442,258,1752242859,363047723,imu_link,0.00884856115606031,-0.005985917652126755,-0.9972867304302796,0.0728357677450591,"(0.001, 0.0, 0.0, 0.0, 0.001, 0.0, 0.0, 0.0, 0.001)",0.022370552775065104,0.02130528835720486,-0.39414783460828995,"(1e-05, 0.0, 0.0, 0.0, 1e-05, 0.0, 0.0, 0.0, 1e-05)",0.08134765625000001,0.0095703125,9.962695312500001,"(0.01, 0.0, 0.0, 0.0, 0.01, 0.0, 0.0, 0.0, 0.01)"
2025/07/11/14:07:39.393734,259,1752242859,393306050,imu_link,0.008959187559286371,-0.006391074081640092,-0.9978993867739843,0.06384121714430674,"(0.001, 0.0, 0.0, 0.0, 0.001, 0.0, 0.0, 0.0, 0.001)",0.043675841132269966,0.01384843743218316,-0.39414783460828995,"(1e-05, 0.0, 0.0, 0.0, 1e-05, 0.0, 0.0, 0.0, 1e-05)",0.08134765625000001,0.0095703125,9.962695312500001,"(0.01, 0.0, 0.0, 0.0, 0.01, 0.0, 0.0, 0.0, 0.01)"
2025/07/11/14:07:39.413559,260,1752242859,413244792,imu_link,0.008959187559286371,-0.006391074081640092,-0.9978993867739843,0.06384121714430674,"(0.001, 0.0, 0.0, 0.0, 0.001, 0.0, 0.0, 0.0, 0.001)",0.043675841132269966,0.01384843743218316,-0.39414783460828995,"(1e-05, 0.0, 0.0, 0.0, 1e-05, 0.0, 0.0, 0.0, 1e-05)",-0.18183593750000002,0.32539062500000004,9.66123046875,"(0.01, 0.0, 0.0, 0.0, 0.01, 0.0, 0.0, 0.0, 0.01)"
2025/07/11/14:07:39.463927,261,1752242859,463520079,imu_link,0.009319426147317168,-0.007173761663712806,-0.9984574892425412,0.05426165879658984,"(0.001, 0.0, 0.0, 0.0, 0.001, 0.0, 0.0, 0.0, 0.001)",0.017044230685763887,0.02343581719292535,-0.42077944505479603,"(1e-05, 0.0, 0.0, 0.0, 1e-05, 0.0, 0.0, 0.0, 1e-05)",0.172265625,0.22968750000000002,9.933984375000001,"(0.01, 0.0, 0.0, 0.0, 0.01, 0.0, 0.0, 0.0, 0.01)"
2025/07/11/14:07:39.493466,262,1752242859,493133554,imu_link,0.009727023595137472,-0.00734545850001773,-0.9989650844992901,0.04381996351813119,"(0.001, 0.0, 0.0, 0.0, 0.001, 0.0, 0.0, 0.0, 0.001)",-0.012783173014322916,0.019174759521484376,-0.4410194689941406,"(1e-05, 0.0, 0.0, 0.0, 1e-05, 0.0, 0.0, 0.0, 1e-05)",0.172265625,0.22968750000000002,9.933984375000001,"(0.01, 0.0, 0.0, 0.0, 0.01, 0.0, 0.0, 0.0, 0.01)"
2025/07/11/14:07:39.514179,263,1752242859,513788593,imu_link,0.009727023595137472,-0.00734545850001773,-0.9989650844992901,0.04381996351813119,"(0.001, 0.0, 0.0, 0.0, 0.001, 0.0, 0.0, 0.0, 0.001)",-0.012783173014322916,0.019174759521484376,-0.4410194689941406,"(1e-05, 0.0, 0.0, 0.0, 1e-05, 0.0, 0.0, 0.0, 1e-05)",-0.10048828125,0.27275390625,9.694726562500001,"(0.01, 0.0, 0.0, 0.0, 0.01, 0.0, 0.0, 0.0, 0.01)"
2025/07/11/14:07:39.564437,264,1752242859,564044663,imu_link,0.00998467126398507,-0.007735823736687175,-0.9994055159204935,0.032079247474921455,"(0.001, 0.0, 0.0, 0.0, 0.001, 0.0, 0.0, 0.0, 0.001)",0.03834951904296875,0.005326322089301215,-0.5006742763943143,"(1e-05, 0.0, 0.0, 0.0, 1e-05, 0.0, 0.0, 0.0, 1e-05)",-0.17705078125,0.37802734375,9.866992187500001,"(0.01, 0.0, 0.0, 0.0, 0.01, 0.0, 0.0, 0.0, 0.01)"
2025/07/11/14:07:39.593821,265,1752242859,593429328,imu_link,0.009991134778505115,-0.00833892139718515,-0.9997266439208244,0.019423620943958553,"(0.001, 0.0, 0.0, 0.0, 0.001, 0.0, 0.0, 0.0, 0.001)",0.03089266811794705,0.011717908596462675,-0.5134574494086371,"(1e-05, 0.0, 0.0, 0.0, 1e-05, 0.0, 0.0, 0.0, 1e-05)",-0.17705078125,0.37802734375,9.866992187500001,"(0.01, 0.0, 0.0, 0.0, 0.01, 0.0, 0.0, 0.0, 0.01)"
2025/07/11/14:07:39.614617,266,1752242859,614266229,imu_link,0.009991134778505115,-0.00833892139718515,-0.9997266439208244,0.019423620943958553,"(0.001, 0.0, 0.0, 0.0, 0.001, 0.0, 0.0, 0.0, 0.001)",0.03089266811794705,0.011717908596462675,-0.5134574494086371,"(1e-05, 0.0, 0.0, 0.0, 1e-05, 0.0, 0.0, 0.0, 1e-05)",0.0095703125,0.37324218750000004,9.51767578125,"(0.01, 0.0, 0.0, 0.0, 0.01, 0.0, 0.0, 0.0, 0.01)"
2025/07/11/14:07:39.664774,267,1752242859,664435105,imu_link,0.010265707582886903,-0.008706609688977346,-0.9998896455906738,0.006285446372612785,"(0.001, 0.0, 0.0, 0.0, 0.001, 0.0, 0.0, 0.0, 0.001)",0.022370552775065104,0.03728425462510851,-0.5336974733479818,"(1e-05, 0.0, 0.0, 0.0, 1e-05, 0.0, 0.0, 0.0, 1e-05)",-0.014355468750000001,0.36845703125,9.8287109375,"(0.01, 0.0, 0.0, 0.0, 0.01, 0.0, 0.0, 0.0, 0.01)"
2025/07/11/14:07:39.694120,268,1752242859,693593495,imu_link,-0.010722806995053756,0.008657943651888834,0.9998781566958637,0.0073302922417481965,"(0.001, 0.0, 0.0, 0.0, 0.001, 0.0, 0.0, 0.0, 0.001)",-0.019174759521484376,0.0,-0.5358280021837023,"(1e-05, 0.0, 0.0, 0.0, 1e-05, 0.0, 0.0, 0.0, 1e-05)",-0.014355468750000001,0.36845703125,9.8287109375,"(0.01, 0.0, 0.0, 0.0, 0.01, 0.0, 0.0, 0.0, 0.01)"
2025/07/11/14:07:39.715082,269,1752242859,714737693,imu_link,-0.010722806995053756,0.008657943651888834,0.9998781566958637,0.0073302922417481965,"(0.001, 0.0, 0.0, 0.0, 0.001, 0.0, 0.0, 0.0, 0.001)",-0.019174759521484376,0.0,-0.5358280021837023,"(1e-05, 0.0, 0.0, 0.0, 1e-05, 0.0, 0.0, 0.0, 1e-05)",0.3923828125,0.33017578125,9.747363281250001,"(0.01, 0.0, 0.0, 0.0, 0.01, 0.0, 0.0, 0.0, 0.01)"
2025/07/11/14:07:39.765403,270,1752242859,765000036,imu_link,-0.010849365425980396,0.008474200642969896,0.9996829272832071,0.021083739985927396,"(0.001, 0.0, 0.0, 0.0, 0.001, 0.0, 0.0, 0.0, 0.001)",0.014913701850043402,0.02024002393934462,-0.5390237954372831,"(1e-05, 0.0, 0.0, 0.0, 1e-05, 0.0, 0.0, 0.0, 1e-05)",0.15791015625000002,0.37324218750000004,9.699511718750001,"(0.01, 0.0, 0.0, 0.0, 0.01, 0.0, 0.0, 0.0, 0.01)"
2025/07/11/14:07:39.793565,271,1752242859,793146263,imu_link,-0.011548109037454174,0.008374553540988016,0.9992573032240847,0.035795949267730366,"(0.001, 0.0, 0.0, 0.0, 0.001, 0.0, 0.0, 0.0, 0.001)",-0.014913701850043402,0.02663161044650608,-0.5603290837944879,"(1e-05, 0.0, 0.0, 0.0, 1e-05, 0.0, 0.0, 0.0, 1e-05)",0.15791015625000002,0.37324218750000004,9.699511718750001,"(0.01, 0.0, 0.0, 0.0, 0.01, 0.0, 0.0, 0.0, 0.01)"
2025/07/11/14:07:39.815580,272,1752242859,815200832,imu_link,-0.011548109037454174,0.008374553540988016,0.9992573032240847,0.035795949267730366,"(0.001, 0.0, 0.0, 0.0, 0.001, 0.0, 0.0, 0.0, 0.001)",-0.014913701850043402,0.02663161044650608,-0.5603290837944879,"(1e-05, 0.0, 0.0, 0.0, 1e-05, 0.0, 0.0, 0.0, 1e-05)",-0.028710937500000002,0.27753906250000004,9.957910156250001,"(0.01, 0.0, 0.0, 0.0, 0.01, 0.0, 0.0, 0.0, 0.01)"
2025/07/11/14:07:39.865885,273,1752242859,865496778,imu_link,-0.01229274140582391,0.008266051734269593,0.9985554638850761,0.05164829564193273,"(0.001, 0.0, 0.0, 0.0, 0.001, 0.0, 0.0, 0.0, 0.001)",-0.02130528835720486,0.02343581719292535,-0.582699636569553,"(1e-05, 0.0, 0.0, 0.0, 1e-05, 0.0, 0.0, 0.0, 1e-05)",-0.31103515625,0.6555664062500001,9.56552734375,"(0.01, 0.0, 0.0, 0.0, 0.01, 0.0, 0.0, 0.0, 0.01)"
2025/07/11/14:07:39.893620,274,1752242859,893163885,imu_link,-0.012929868264253061,0.008290536514674724,0.9975071113347405,0.06887414861607727,"(0.001, 0.0, 0.0, 0.0, 0.001, 0.0, 0.0, 0.0, 0.001)",0.02769687486436632,0.07243798041449653,-0.6317017997911242,"(1e-05, 0.0, 0.0, 0.0, 1e-05, 0.0, 0.0, 0.0, 1e-05)",-0.31103515625,0.6555664062500001,9.56552734375,"(0.01, 0.0, 0.0, 0.0, 0.01, 0.0, 0.0, 0.0, 0.01)"
2025/07/11/14:07:39.916081,275,1752242859,915740415,imu_link,-0.012929868264253061,0.008290536514674724,0.9975071113347405,0.06887414861607727,"(0.001, 0.0, 0.0, 0.0, 0.001, 0.0, 0.0, 0.0, 0.001)",0.02769687486436632,0.07243798041449653,-0.6317017997911242,"(1e-05, 0.0, 0.0, 0.0, 1e-05, 0.0, 0.0, 0.0, 1e-05)",-0.6507812500000001,1.0431640625,9.40283203125,"(0.01, 0.0, 0.0, 0.0, 0.01, 0.0, 0.0, 0.0, 0.01)"
2025/07/11/14:07:39.966623,276,1752242859,966146066,imu_link,-0.013813868474675623,0.008187648031136082,0.9960425883888996,0.08741453868220887,"(0.001, 0.0, 0.0, 0.0, 0.001, 0.0, 0.0, 0.0, 0.001)",0.0,0.10972223503960503,-0.65726814581977,"(1e-05, 0.0, 0.0, 0.0, 1e-05, 0.0, 0.0, 0.0, 1e-05)",-0.39716796875000004,0.6268554687500001,9.6373046875,"(0.01, 0.0, 0.0, 0.0, 0.01, 0.0, 0.0, 0.0, 0.01)"
2025/07/11/14:07:39.993565,277,1752242859,993147913,imu_link,-0.014743374433344305,0.007707239184976721,0.9941235501735886,0.1069654073274373,"(0.001, 0.0, 0.0, 0.0, 0.001, 0.0, 0.0, 0.0, 0.001)",-0.006391586507161458,0.06817692274305555,-0.6807039630126953,"(1e-05, 0.0, 0.0, 0.0, 1e-05, 0.0, 0.0, 0.0, 1e-05)",-0.39716796875000004,0.6268554687500001,9.6373046875,"(0.01, 0.0, 0.0, 0.0, 0.01, 0.0, 0.0, 0.0, 0.01)"
2025/07/11/14:07:40.016657,278,1752242860,16261122,imu_link,-0.014743374433344305,0.007707239184976721,0.9941235501735886,0.1069654073274373,"(0.001, 0.0, 0.0, 0.0, 0.001, 0.0, 0.0, 0.0, 0.001)",-0.006391586507161458,0.06817692274305555,-0.6807039630126953,"(1e-05, 0.0, 0.0, 0.0, 1e-05, 0.0, 0.0, 0.0, 1e-05)",-0.41152343750000003,0.25361328125000004,10.01533203125,"(0.01, 0.0, 0.0, 0.0, 0.01, 0.0, 0.0, 0.0, 0.01)"
2025/07/11/14:07:40.067007,279,1752242860,66460897,imu_link,-0.015712089454045782,0.007514375653077006,0.9917863422119317,0.12671430781647847,"(0.001, 0.0, 0.0, 0.0, 0.001, 0.0, 0.0, 0.0, 0.001)",-0.015978966267903648,0.02769687486436632,-0.6711165832519531,"(1e-05, 0.0, 0.0, 0.0, 1e-05, 0.0, 0.0, 0.0, 1e-05)",-0.37802734375,0.7225585937500001,9.675585937500001,"(0.01, 0.0, 0.0, 0.0, 0.01, 0.0, 0.0, 0.0, 0.01)"
2025/07/11/14:07:40.093848,280,1752242860,93319115,imu_link,-0.016055068992527517,0.00775253602939871,0.9890692314919087,0.14637003880836805,"(0.001, 0.0, 0.0, 0.0, 0.001, 0.0, 0.0, 0.0, 0.001)",0.001065264417860243,0.05965480740017361,-0.6636597323269314,"(1e-05, 0.0, 0.0, 0.0, 1e-05, 0.0, 0.0, 0.0, 1e-05)",-0.37802734375,0.7225585937500001,9.675585937500001,"(0.01, 0.0, 0.0, 0.0, 0.01, 0.0, 0.0, 0.0, 0.01)"
2025/07/11/14:07:40.117201,281,1752242860,116717640,imu_link,-0.016055068992527517,0.00775253602939871,0.9890692314919087,0.14637003880836805,"(0.001, 0.0, 0.0, 0.0, 0.001, 0.0, 0.0, 0.0, 0.001)",0.001065264417860243,0.05965480740017361,-0.6636597323269314,"(1e-05, 0.0, 0.0, 0.0, 1e-05, 0.0, 0.0, 0.0, 1e-05)",-0.057421875000000004,0.08134765625000001,9.795214843750001,"(0.01, 0.0, 0.0, 0.0, 0.01, 0.0, 0.0, 0.0, 0.01)"
2025/07/11/14:07:40.167498,282,1752242860,167022352,imu_link,-0.016804591980855585,0.007851478299748962,0.9857897071744881,0.16695692020908476,"(0.001, 0.0, 0.0, 0.0, 0.001, 0.0, 0.0, 0.0, 0.001)",-0.005326322089301215,0.04474110555013021,-0.6796386985948351,"(1e-05, 0.0, 0.0, 0.0, 1e-05, 0.0, 0.0, 0.0, 1e-05)",0.0,0.16748046875,9.843066406250001,"(0.01, 0.0, 0.0, 0.0, 0.01, 0.0, 0.0, 0.0, 0.01)"
2025/07/11/14:07:40.193563,283,1752242860,193130761,imu_link,-0.01747921551179787,0.007848593217433626,0.9818404983817138,0.18873821114746905,"(0.001, 0.0, 0.0, 0.0, 0.001, 0.0, 0.0, 0.0, 0.001)",-0.02130528835720486,0.012783173014322916,-0.6945524004448785,"(1e-05, 0.0, 0.0, 0.0, 1e-05, 0.0, 0.0, 0.0, 1e-05)",0.0,0.16748046875,9.843066406250001,"(0.01, 0.0, 0.0, 0.0, 0.01, 0.0, 0.0, 0.0, 0.01)"
2025/07/11/14:07:40.217860,284,1752242860,217246624,imu_link,-0.01747921551179787,0.007848593217433626,0.9818404983817138,0.18873821114746905,"(0.001, 0.0, 0.0, 0.0, 0.001, 0.0, 0.0, 0.0, 0.001)",-0.02130528835720486,0.012783173014322916,-0.6945524004448785,"(1e-05, 0.0, 0.0, 0.0, 1e-05, 0.0, 0.0, 0.0, 1e-05)",-0.3541015625,-0.02392578125,10.11103515625,"(0.01, 0.0, 0.0, 0.0, 0.01, 0.0, 0.0, 0.0, 0.01)"
2025/07/11/14:07:40.267994,285,1752242860,267442983,imu_link,-0.018035057229276542,0.007770380725204135,0.9772411961925421,0.21122026976190383,"(0.001, 0.0, 0.0, 0.0, 0.001, 0.0, 0.0, 0.0, 0.001)",-0.035153725789388024,-0.01384843743218316,-0.7041397802056206,"(1e-05, 0.0, 0.0, 0.0, 1e-05, 0.0, 0.0, 0.0, 1e-05)",-0.7225585937500001,0.36367187500000003,9.80478515625,"(0.01, 0.0, 0.0, 0.0, 0.01, 0.0, 0.0, 0.0, 0.01)"
2025/07/11/14:07:40.293604,286,1752242860,293152631,imu_link,-0.018305276891340955,0.007517109605478382,0.9719661642316786,0.2342865456868321,"(0.001, 0.0, 0.0, 0.0, 0.001, 0.0, 0.0, 0.0, 0.001)",-0.02876213928222656,0.025566346028645832,-0.7084008378770617,"(1e-05, 0.0, 0.0, 0.0, 1e-05, 0.0, 0.0, 0.0, 1e-05)",-0.7225585937500001,0.36367187500000003,9.80478515625,"(0.01, 0.0, 0.0, 0.0, 0.01, 0.0, 0.0, 0.0, 0.01)"
2025/07/11/14:07:40.317968,287,1752242860,317682653,imu_link,-0.018305276891340955,0.007517109605478382,0.9719661642316786,0.2342865456868321,"(0.001, 0.0, 0.0, 0.0, 0.001, 0.0, 0.0, 0.0, 0.001)",-0.02876213928222656,0.025566346028645832,-0.7084008378770617,"(1e-05, 0.0, 0.0, 0.0, 1e-05, 0.0, 0.0, 0.0, 1e-05)",-0.45937500000000003,0.40673828125000006,9.723437500000001,"(0.01, 0.0, 0.0, 0.0, 0.01, 0.0, 0.0, 0.0, 0.01)"
2025/07/11/14:07:40.368409,288,1752242860,367992976,imu_link,-0.018402408650269274,0.007081684139352734,0.9661396399872374,0.25726522724797113,"(0.001, 0.0, 0.0, 0.0, 0.001, 0.0, 0.0, 0.0, 0.001)",-0.008522115342881944,0.03089266811794705,-0.6977481936984592,"(1e-05, 0.0, 0.0, 0.0, 1e-05, 0.0, 0.0, 0.0, 1e-05)",0.052636718750000006,-0.2009765625,9.933984375000001,"(0.01, 0.0, 0.0, 0.0, 0.01, 0.0, 0.0, 0.0, 0.01)"
2025/07/11/14:07:40.393890,289,1752242860,393320527,imu_link,-0.01883766706660744,0.006799178399652446,0.9597086255814828,0.2802824779701334,"(0.001, 0.0, 0.0, 0.0, 0.001, 0.0, 0.0, 0.0, 0.001)",-0.014913701850043402,0.03089266811794705,-0.6870955495198567,"(1e-05, 0.0, 0.0, 0.0, 1e-05, 0.0, 0.0, 0.0, 1e-05)",0.052636718750000006,-0.2009765625,9.933984375000001,"(0.01, 0.0, 0.0, 0.0, 0.01, 0.0, 0.0, 0.0, 0.01)"
2025/07/11/14:07:40.418615,290,1752242860,418227397,imu_link,-0.01883766706660744,0.006799178399652446,0.9597086255814828,0.2802824779701334,"(0.001, 0.0, 0.0, 0.0, 0.001, 0.0, 0.0, 0.0, 0.001)",-0.014913701850043402,0.03089266811794705,-0.6870955495198567,"(1e-05, 0.0, 0.0, 0.0, 1e-05, 0.0, 0.0, 0.0, 1e-05)",0.42587890625,-0.23447265625000002,10.005761718750001,"(0.01, 0.0, 0.0, 0.0, 0.01, 0.0, 0.0, 0.0, 0.01)"
2025/07/11/14:07:40.468827,291,1752242860,468386596,imu_link,-0.019236260540280586,0.006888179577371221,0.9525363996483579,0.30373825344773453,"(0.001, 0.0, 0.0, 0.0, 0.001, 0.0, 0.0, 0.0, 0.001)",-0.02769687486436632,0.004261057671440972,-0.7062703090413411,"(1e-05, 0.0, 0.0, 0.0, 1e-05, 0.0, 0.0, 0.0, 1e-05)",0.516796875,-0.27753906250000004,10.125390625000001,"(0.01, 0.0, 0.0, 0.0, 0.01, 0.0, 0.0, 0.0, 0.01)"
2025/07/11/14:07:40.493512,292,1752242860,493142212,imu_link,-0.01956148078158212,0.006792576285670658,0.944465192374433,0.3279583964013731,"(0.001, 0.0, 0.0, 0.0, 0.001, 0.0, 0.0, 0.0, 0.001)",-0.035153725789388024,-0.03089266811794705,-0.7265103329806858,"(1e-05, 0.0, 0.0, 0.0, 1e-05, 0.0, 0.0, 0.0, 1e-05)",0.516796875,-0.27753906250000004,10.125390625000001,"(0.01, 0.0, 0.0, 0.0, 0.01, 0.0, 0.0, 0.0, 0.01)"
2025/07/11/14:07:40.519070,293,1752242860,518650061,imu_link,-0.01956148078158212,0.006792576285670658,0.944465192374433,0.3279583964013731,"(0.001, 0.0, 0.0, 0.0, 0.001, 0.0, 0.0, 0.0, 0.001)",-0.035153725789388024,-0.03089266811794705,-0.7265103329806858,"(1e-05, 0.0, 0.0, 0.0, 1e-05, 0.0, 0.0, 0.0, 1e-05)",-0.3349609375,0.06220703125,9.699511718750001,"(0.01, 0.0, 0.0, 0.0, 0.01, 0.0, 0.0, 0.0, 0.01)"
2025/07/11/14:07:40.569335,294,1752242860,568980442,imu_link,-0.019869100140103325,0.006676745421692156,0.9354243018380669,0.3529051082953625,"(0.001, 0.0, 0.0, 0.0, 0.001, 0.0, 0.0, 0.0, 0.001)",0.0,0.035153725789388024,-0.7392935059950088,"(1e-05, 0.0, 0.0, 0.0, 1e-05, 0.0, 0.0, 0.0, 1e-05)",-0.18662109375000002,-0.27753906250000004,10.09189453125,"(0.01, 0.0, 0.0, 0.0, 0.01, 0.0, 0.0, 0.0, 0.01)"
2025/07/11/14:07:40.593811,295,1752242860,593453146,imu_link,-0.020968773334927346,0.006845880338978011,0.9257086632858151,0.3775935846711408,"(0.001, 0.0, 0.0, 0.0, 0.001, 0.0, 0.0, 0.0, 0.001)",-0.031957932535807296,0.07776430250379775,-0.7360977127414279,"(1e-05, 0.0, 0.0, 0.0, 1e-05, 0.0, 0.0, 0.0, 1e-05)",-0.18662109375000002,-0.27753906250000004,10.09189453125,"(0.01, 0.0, 0.0, 0.0, 0.01, 0.0, 0.0, 0.0, 0.01)"
2025/07/11/14:07:40.619334,296,1752242860,619038381,imu_link,-0.020968773334927346,0.006845880338978011,0.9257086632858151,0.3775935846711408,"(0.001, 0.0, 0.0, 0.0, 0.001, 0.0, 0.0, 0.0, 0.001)",-0.031957932535807296,0.07776430250379775,-0.7360977127414279,"(1e-05, 0.0, 0.0, 0.0, 1e-05, 0.0, 0.0, 0.0, 1e-05)",-0.37324218750000004,0.287109375,9.962695312500001,"(0.01, 0.0, 0.0, 0.0, 0.01, 0.0, 0.0, 0.0, 0.01)"
2025/07/11/14:07:40.670191,297,1752242860,669835960,imu_link,-0.021217830731949234,0.007239234778239718,0.9151394111560462,0.4025136709328278,"(0.001, 0.0, 0.0, 0.0, 0.001, 0.0, 0.0, 0.0, 0.001)",0.003195793253580729,0.03089266811794705,-0.7435545636664497,"(1e-05, 0.0, 0.0, 0.0, 1e-05, 0.0, 0.0, 0.0, 1e-05)",-0.5263671875,0.32060546875,9.704296875,"(0.01, 0.0, 0.0, 0.0, 0.01, 0.0, 0.0, 0.0, 0.01)"
2025/07/11/14:07:40.694104,298,1752242860,693531734,imu_link,-0.021897432145185074,0.007960019244709826,0.9039495850586033,0.4270038503707545,"(0.001, 0.0, 0.0, 0.0, 0.001, 0.0, 0.0, 0.0, 0.001)",-0.01065264417860243,0.060720071818033856,-0.7233145397271051,"(1e-05, 0.0, 0.0, 0.0, 1e-05, 0.0, 0.0, 0.0, 1e-05)",-0.5263671875,0.32060546875,9.704296875,"(0.01, 0.0, 0.0, 0.0, 0.01, 0.0, 0.0, 0.0, 0.01)"
2025/07/11/14:07:40.719955,299,1752242860,719600107,imu_link,-0.021897432145185074,0.007960019244709826,0.9039495850586033,0.4270038503707545,"(0.001, 0.0, 0.0, 0.0, 0.001, 0.0, 0.0, 0.0, 0.001)",-0.01065264417860243,0.060720071818033856,-0.7233145397271051,"(1e-05, 0.0, 0.0, 0.0, 1e-05, 0.0, 0.0, 0.0, 1e-05)",-0.13398437500000002,0.26318359375,9.795214843750001,"(0.01, 0.0, 0.0, 0.0, 0.01, 0.0, 0.0, 0.0, 0.01)"
2025/07/11/14:07:40.770346,300,1752242860,769822825,imu_link,-0.022040737728754353,0.007931364805100436,0.892037697750759,0.4513535699695151,"(0.001, 0.0, 0.0, 0.0, 0.001, 0.0, 0.0, 0.0, 0.001)",-0.01384843743218316,0.003195793253580729,-0.7169229532199436,"(1e-05, 0.0, 0.0, 0.0, 1e-05, 0.0, 0.0, 0.0, 1e-05)",-0.516796875,0.37802734375,9.819140625000001,"(0.01, 0.0, 0.0, 0.0, 0.01, 0.0, 0.0, 0.0, 0.01)"
2025/07/11/14:07:40.793503,301,1752242860,793144115,imu_link,-0.022668559006637022,0.00806042901517348,0.8794613012964203,0.47536195203093506,"(0.001, 0.0, 0.0, 0.0, 0.001, 0.0, 0.0, 0.0, 0.001)",-0.02130528835720486,0.04261057671440972,-0.7030745157877605,"(1e-05, 0.0, 0.0, 0.0, 1e-05, 0.0, 0.0, 0.0, 1e-05)",-0.516796875,0.37802734375,9.819140625000001,"(0.01, 0.0, 0.0, 0.0, 0.01, 0.0, 0.0, 0.0, 0.01)"
2025/07/11/14:07:40.820459,302,1752242860,820175337,imu_link,-0.022668559006637022,0.00806042901517348,0.8794613012964203,0.47536195203093506,"(0.001, 0.0, 0.0, 0.0, 0.001, 0.0, 0.0, 0.0, 0.001)",-0.02130528835720486,0.04261057671440972,-0.7030745157877605,"(1e-05, 0.0, 0.0, 0.0, 1e-05, 0.0, 0.0, 0.0, 1e-05)",-0.6412109375,0.54072265625,9.70908203125,"(0.01, 0.0, 0.0, 0.0, 0.01, 0.0, 0.0, 0.0, 0.01)"
2025/07/11/14:07:40.870456,303,1752242860,870258734,imu_link,-0.02327052150816422,0.008096604986588166,0.8662889368191227,0.498935272115756,"(0.001, 0.0, 0.0, 0.0, 0.001, 0.0, 0.0, 0.0, 0.001)",-0.015978966267903648,0.07243798041449653,-0.6913566071912978,"(1e-05, 0.0, 0.0, 0.0, 1e-05, 0.0, 0.0, 0.0, 1e-05)",0.13876953125000002,-0.32060546875,9.910058593750001,"(0.01, 0.0, 0.0, 0.0, 0.01, 0.0, 0.0, 0.0, 0.01)"
2025/07/11/14:07:40.893538,304,1752242860,893133365,imu_link,-0.023767370016468968,0.008086266794977232,0.8527122042284478,0.5217773674391045,"(0.001, 0.0, 0.0, 0.0, 0.001, 0.0, 0.0, 0.0, 0.001)",0.0,0.03834951904296875,-0.6785734341769749,"(1e-05, 0.0, 0.0, 0.0, 1e-05, 0.0, 0.0, 0.0, 1e-05)",0.13876953125000002,-0.32060546875,9.910058593750001,"(0.01, 0.0, 0.0, 0.0, 0.01, 0.0, 0.0, 0.0, 0.01)"
2025/07/11/14:07:40.920906,305,1752242860,920532920,imu_link,-0.023767370016468968,0.008086266794977232,0.8527122042284478,0.5217773674391045,"(0.001, 0.0, 0.0, 0.0, 0.001, 0.0, 0.0, 0.0, 0.001)",0.0,0.03834951904296875,-0.6785734341769749,"(1e-05, 0.0, 0.0, 0.0, 1e-05, 0.0, 0.0, 0.0, 1e-05)",-0.18183593750000002,0.00478515625,10.14453125,"(0.01, 0.0, 0.0, 0.0, 0.01, 0.0, 0.0, 0.0, 0.01)"
2025/07/11/14:07:40.971088,306,1752242860,970730641,imu_link,-0.02433342484667868,0.00863552648293205,0.838914478859584,0.5436504476935028,"(0.001, 0.0, 0.0, 0.0, 0.001, 0.0, 0.0, 0.0, 0.001)",-0.006391586507161458,0.02130528835720486,-0.6466155016411675,"(1e-05, 0.0, 0.0, 0.0, 1e-05, 0.0, 0.0, 0.0, 1e-05)",-0.47851562500000006,-0.00478515625,9.92919921875,"(0.01, 0.0, 0.0, 0.0, 0.01, 0.0, 0.0, 0.0, 0.01)"
2025/07/11/14:07:40.993731,307,1752242860,993310437,imu_link,-0.024388542055217118,0.009091413042877527,0.8249142976249578,0.5646582566466439,"(0.001, 0.0, 0.0, 0.0, 0.001, 0.0, 0.0, 0.0, 0.001)",0.003195793253580729,0.02663161044650608,-0.6008091316731771,"(1e-05, 0.0, 0.0, 0.0, 1e-05, 0.0, 0.0, 0.0, 1e-05)",-0.47851562500000006,-0.00478515625,9.92919921875,"(0.01, 0.0, 0.0, 0.0, 0.01, 0.0, 0.0, 0.0, 0.01)"
2025/07/11/14:07:41.021365,308,1752242861,21032258,imu_link,-0.024388542055217118,0.009091413042877527,0.8249142976249578,0.5646582566466439,"(0.001, 0.0, 0.0, 0.0, 0.001, 0.0, 0.0, 0.0, 0.001)",0.003195793253580729,0.02663161044650608,-0.6008091316731771,"(1e-05, 0.0, 0.0, 0.0, 1e-05, 0.0, 0.0, 0.0, 1e-05)",-0.35888671875,-0.19619140625,10.3263671875,"(0.01, 0.0, 0.0, 0.0, 0.01, 0.0, 0.0, 0.0, 0.01)"
2025/07/11/14:07:41.071640,309,1752242861,71244097,imu_link,-0.024065962274941434,0.00972997087487807,0.8109764660142643,0.5845026336104655,"(0.001, 0.0, 0.0, 0.0, 0.001, 0.0, 0.0, 0.0, 0.001)",-0.029827403700086803,-0.03621899020724827,-0.5592638193766276,"(1e-05, 0.0, 0.0, 0.0, 1e-05, 0.0, 0.0, 0.0, 1e-05)",-0.47851562500000006,0.15791015625000002,9.76171875,"(0.01, 0.0, 0.0, 0.0, 0.01, 0.0, 0.0, 0.0, 0.01)"
2025/07/11/14:07:41.093537,310,1752242861,93123527,imu_link,-0.023458959819132357,0.01030543997405352,0.7971424986465934,0.603247305806343,"(0.001, 0.0, 0.0, 0.0, 0.001, 0.0, 0.0, 0.0, 0.001)",0.0,-0.014913701850043402,-0.5219795647515191,"(1e-05, 0.0, 0.0, 0.0, 1e-05, 0.0, 0.0, 0.0, 1e-05)",-0.47851562500000006,0.15791015625000002,9.76171875,"(0.01, 0.0, 0.0, 0.0, 0.01, 0.0, 0.0, 0.0, 0.01)"
2025/07/11/14:07:41.121821,311,1752242861,121478077,imu_link,-0.023458959819132357,0.01030543997405352,0.7971424986465934,0.603247305806343,"(0.001, 0.0, 0.0, 0.0, 0.001, 0.0, 0.0, 0.0, 0.001)",0.0,-0.014913701850043402,-0.5219795647515191,"(1e-05, 0.0, 0.0, 0.0, 1e-05, 0.0, 0.0, 0.0, 1e-05)",0.37802734375,-0.37324218750000004,10.010546875000001,"(0.01, 0.0, 0.0, 0.0, 0.01, 0.0, 0.0, 0.0, 0.01)"
2025/07/11/14:07:41.172135,312,1752242861,171754307,imu_link,-0.023053606054883557,0.01058083518093307,0.7832661848787487,0.6211687860801042,"(0.001, 0.0, 0.0, 0.0, 0.001, 0.0, 0.0, 0.0, 0.001)",0.0,0.019174759521484376,-0.5113269205729167,"(1e-05, 0.0, 0.0, 0.0, 1e-05, 0.0, 0.0, 0.0, 1e-05)",-0.248828125,0.6077148437500001,9.675585937500001,"(0.01, 0.0, 0.0, 0.0, 0.01, 0.0, 0.0, 0.0, 0.01)"
2025/07/11/14:07:41.193331,313,1752242861,193113971,imu_link,-0.022784414756182494,0.010827537729598418,0.7690784026462046,0.638656437730095,"(0.001, 0.0, 0.0, 0.0, 0.001, 0.0, 0.0, 0.0, 0.001)",0.02130528835720486,0.02024002393934462,-0.5187837714979384,"(1e-05, 0.0, 0.0, 0.0, 1e-05, 0.0, 0.0, 0.0, 1e-05)",-0.248828125,0.6077148437500001,9.675585937500001,"(0.01, 0.0, 0.0, 0.0, 0.01, 0.0, 0.0, 0.0, 0.01)"
2025/07/11/14:07:41.222235,314,1752242861,221907696,imu_link,-0.022784414756182494,0.010827537729598418,0.7690784026462046,0.638656437730095,"(0.001, 0.0, 0.0, 0.0, 0.001, 0.0, 0.0, 0.0, 0.001)",0.02130528835720486,0.02024002393934462,-0.5187837714979384,"(1e-05, 0.0, 0.0, 0.0, 1e-05, 0.0, 0.0, 0.0, 1e-05)",-0.15791015625000002,0.19140625,9.53681640625,"(0.01, 0.0, 0.0, 0.0, 0.01, 0.0, 0.0, 0.0, 0.01)"
2025/07/11/14:07:41.272573,315,1752242861,272213602,imu_link,-0.02252673172524234,0.010686880164711591,0.7546952154679133,0.6556016082194767,"(0.001, 0.0, 0.0, 0.0, 0.001, 0.0, 0.0, 0.0, 0.001)",-0.006391586507161458,0.031957932535807296,-0.5017395408121744,"(1e-05, 0.0, 0.0, 0.0, 1e-05, 0.0, 0.0, 0.0, 1e-05)",-0.976171875,0.8948242187500001,9.603808593750001,"(0.01, 0.0, 0.0, 0.0, 0.01, 0.0, 0.0, 0.0, 0.01)"
2025/07/11/14:07:41.293835,316,1752242861,293328375,imu_link,-0.02255983806968058,0.010522082838210408,0.7400988600795664,0.6720372138415716,"(0.001, 0.0, 0.0, 0.0, 0.001, 0.0, 0.0, 0.0, 0.001)",-0.039414783460828995,0.001065264417860243,-0.4825647812906901,"(1e-05, 0.0, 0.0, 0.0, 1e-05, 0.0, 0.0, 0.0, 1e-05)",-0.976171875,0.8948242187500001,9.603808593750001,"(0.01, 0.0, 0.0, 0.0, 0.01, 0.0, 0.0, 0.0, 0.01)"
2025/07/11/14:07:41.322764,317,1752242861,322418036,imu_link,-0.02255983806968058,0.010522082838210408,0.7400988600795664,0.6720372138415716,"(0.001, 0.0, 0.0, 0.0, 0.001, 0.0, 0.0, 0.0, 0.001)",-0.039414783460828995,0.001065264417860243,-0.4825647812906901,"(1e-05, 0.0, 0.0, 0.0, 1e-05, 0.0, 0.0, 0.0, 1e-05)",-0.06220703125,0.11005859375,9.5416015625,"(0.01, 0.0, 0.0, 0.0, 0.01, 0.0, 0.0, 0.0, 0.01)"
2025/07/11/14:07:41.373009,318,1752242861,372678236,imu_link,-0.022946117318517912,0.010004513917134963,0.7255117031933351,0.6877544285068564,"(0.001, 0.0, 0.0, 0.0, 0.001, 0.0, 0.0, 0.0, 0.001)",-0.03834951904296875,0.05539374972873264,-0.4751079303656684,"(1e-05, 0.0, 0.0, 0.0, 1e-05, 0.0, 0.0, 0.0, 1e-05)",-0.4498046875,0.20576171875000002,9.957910156250001,"(0.01, 0.0, 0.0, 0.0, 0.01, 0.0, 0.0, 0.0, 0.01)"
2025/07/11/14:07:41.393724,319,1752242861,393305343,imu_link,-0.023809255370435753,0.009942652591239737,0.7107180726975191,0.7030036160357067,"(0.001, 0.0, 0.0, 0.0, 0.001, 0.0, 0.0, 0.0, 0.001)",-0.0468716343858507,0.009587379760742188,-0.46019422851562497,"(1e-05, 0.0, 0.0, 0.0, 1e-05, 0.0, 0.0, 0.0, 1e-05)",-0.4498046875,0.20576171875000002,9.957910156250001,"(0.01, 0.0, 0.0, 0.0, 0.01, 0.0, 0.0, 0.0, 0.01)"
2025/07/11/14:07:41.423279,320,1752242861,422932815,imu_link,-0.023809255370435753,0.009942652591239737,0.7107180726975191,0.7030036160357067,"(0.001, 0.0, 0.0, 0.0, 0.001, 0.0, 0.0, 0.0, 0.001)",-0.0468716343858507,0.009587379760742188,-0.46019422851562497,"(1e-05, 0.0, 0.0, 0.0, 1e-05, 0.0, 0.0, 0.0, 1e-05)",0.45937500000000003,-0.6316406250000001,10.09189453125,"(0.01, 0.0, 0.0, 0.0, 0.01, 0.0, 0.0, 0.0, 0.01)"
2025/07/11/14:07:41.473781,321,1752242861,473374726,imu_link,-0.02418827226960446,0.009527450534986794,0.6960211422323683,0.7175505032654246,"(0.001, 0.0, 0.0, 0.0, 0.001, 0.0, 0.0, 0.0, 0.001)",-0.04048004787868924,0.018109495103624133,-0.4356931469048394,"(1e-05, 0.0, 0.0, 0.0, 1e-05, 0.0, 0.0, 0.0, 1e-05)",-0.2583984375,0.1435546875,9.77607421875,"(0.01, 0.0, 0.0, 0.0, 0.01, 0.0, 0.0, 0.0, 0.01)"
2025/07/11/14:07:41.493443,322,1752242861,493151755,imu_link,-0.024642304911136975,0.009800657929019192,0.681367957069604,0.7314604644077622,"(0.001, 0.0, 0.0, 0.0, 0.001, 0.0, 0.0, 0.0, 0.001)",-0.006391586507161458,0.05006742763943142,-0.4282362959798177,"(1e-05, 0.0, 0.0, 0.0, 1e-05, 0.0, 0.0, 0.0, 1e-05)",-0.2583984375,0.1435546875,9.77607421875,"(0.01, 0.0, 0.0, 0.0, 0.01, 0.0, 0.0, 0.0, 0.01)"
2025/07/11/14:07:41.523602,323,1752242861,523347596,imu_link,-0.024642304911136975,0.009800657929019192,0.681367957069604,0.7314604644077622,"(0.001, 0.0, 0.0, 0.0, 0.001, 0.0, 0.0, 0.0, 0.001)",-0.006391586507161458,0.05006742763943142,-0.4282362959798177,"(1e-05, 0.0, 0.0, 0.0, 1e-05, 0.0, 0.0, 0.0, 1e-05)",-0.7225585937500001,0.42587890625,9.589453125,"(0.01, 0.0, 0.0, 0.0, 0.01, 0.0, 0.0, 0.0, 0.01)"
2025/07/11/14:07:41.574084,324,1752242861,573682145,imu_link,-0.025218995895326213,0.010364850132702426,0.6667193847749756,0.7448099315214831,"(0.001, 0.0, 0.0, 0.0, 0.001, 0.0, 0.0, 0.0, 0.001)",0.01065264417860243,0.08628641784667969,-0.42504050272623695,"(1e-05, 0.0, 0.0, 0.0, 1e-05, 0.0, 0.0, 0.0, 1e-05)",-0.40673828125000006,0.10527343750000001,9.90048828125,"(0.01, 0.0, 0.0, 0.0, 0.01, 0.0, 0.0, 0.0, 0.01)"
2025/07/11/14:07:41.593681,325,1752242861,593380407,imu_link,-0.025041657579568444,0.010894817102299427,0.6519526337426067,0.7577677623797767,"(0.001, 0.0, 0.0, 0.0, 0.001, 0.0, 0.0, 0.0, 0.001)",0.03728425462510851,0.03728425462510851,-0.42077944505479603,"(1e-05, 0.0, 0.0, 0.0, 1e-05, 0.0, 0.0, 0.0, 1e-05)",-0.40673828125000006,0.10527343750000001,9.90048828125,"(0.01, 0.0, 0.0, 0.0, 0.01, 0.0, 0.0, 0.0, 0.01)"
