time,.header.seq,.header.stamp.secs,.header.stamp.nsecs,.header.frame_id,.orientation.x,.orientation.y,.orientation.z,.orientation.w,.orientation_covariance,.angular_velocity.x,.angular_velocity.y,.angular_velocity.z,.angular_velocity_covariance,.linear_acceleration.x,.linear_acceleration.y,.linear_acceleration.z,.linear_acceleration_covariance
2025/07/11/14:08:34.031776,13,1752242914,31159612,imu_link,0.0024161881102442782,-0.010856439198590652,-0.9731666089573526,0.2298326586309929,"(0.001, 0.0, 0.0, 0.0, 0.001, 0.0, 0.0, 0.0, 0.001)",0.0,0.0,0.0,"(1e-05, 0.0, 0.0, 0.0, 1e-05, 0.0, 0.0, 0.0, 1e-05)",0.0,0.20576171875000002,9.814355468750001,"(0.01, 0.0, 0.0, 0.0, 0.01, 0.0, 0.0, 0.0, 0.01)"
2025/07/11/14:08:34.070553,14,1752242914,70207454,imu_link,0.0024161881102442782,-0.010856439198590652,-0.9731666089573526,0.2298326586309929,"(0.001, 0.0, 0.0, 0.0, 0.001, 0.0, 0.0, 0.0, 0.001)",0.0,0.0,0.0,"(1e-05, 0.0, 0.0, 0.0, 1e-05, 0.0, 0.0, 0.0, 1e-05)",0.0,0.20576171875000002,9.814355468750001,"(0.01, 0.0, 0.0, 0.0, 0.01, 0.0, 0.0, 0.0, 0.01)"
2025/07/11/14:08:34.081887,15,1752242914,81383375,imu_link,0.0024161881102442782,-0.010856439198590652,-0.9731666089573526,0.2298326586309929,"(0.001, 0.0, 0.0, 0.0, 0.001, 0.0, 0.0, 0.0, 0.001)",0.0,0.0,0.0,"(1e-05, 0.0, 0.0, 0.0, 1e-05, 0.0, 0.0, 0.0, 1e-05)",0.0,0.20576171875000002,9.814355468750001,"(0.01, 0.0, 0.0, 0.0, 0.01, 0.0, 0.0, 0.0, 0.01)"
2025/07/11/14:08:34.132359,16,1752242914,131692960,imu_link,0.0024161881102442782,-0.010856439198590652,-0.9731666089573526,0.2298326586309929,"(0.001, 0.0, 0.0, 0.0, 0.001, 0.0, 0.0, 0.0, 0.001)",0.0,0.0,0.0,"(1e-05, 0.0, 0.0, 0.0, 1e-05, 0.0, 0.0, 0.0, 1e-05)",0.0,0.20576171875000002,9.8095703125,"(0.01, 0.0, 0.0, 0.0, 0.01, 0.0, 0.0, 0.0, 0.01)"
2025/07/11/14:08:34.170494,17,1752242914,170185776,imu_link,0.0024161881102442782,-0.010856439198590652,-0.9731666089573526,0.2298326586309929,"(0.001, 0.0, 0.0, 0.0, 0.001, 0.0, 0.0, 0.0, 0.001)",0.0,0.0,0.0,"(1e-05, 0.0, 0.0, 0.0, 1e-05, 0.0, 0.0, 0.0, 1e-05)",0.0,0.20576171875000002,9.8095703125,"(0.01, 0.0, 0.0, 0.0, 0.01, 0.0, 0.0, 0.0, 0.01)"
2025/07/11/14:08:34.182454,18,1752242914,181989667,imu_link,0.0024161881102442782,-0.010856439198590652,-0.9731666089573526,0.2298326586309929,"(0.001, 0.0, 0.0, 0.0, 0.001, 0.0, 0.0, 0.0, 0.001)",0.0,0.0,0.0,"(1e-05, 0.0, 0.0, 0.0, 1e-05, 0.0, 0.0, 0.0, 1e-05)",0.0,0.20576171875000002,9.814355468750001,"(0.01, 0.0, 0.0, 0.0, 0.01, 0.0, 0.0, 0.0, 0.01)"
2025/07/11/14:08:34.232529,19,1752242914,232163198,imu_link,0.0024161881102442782,-0.010856439198590652,-0.9731666089573526,0.2298326586309929,"(0.001, 0.0, 0.0, 0.0, 0.001, 0.0, 0.0, 0.0, 0.001)",0.0,0.0,0.0,"(1e-05, 0.0, 0.0, 0.0, 1e-05, 0.0, 0.0, 0.0, 1e-05)",0.0,0.2009765625,9.8095703125,"(0.01, 0.0, 0.0, 0.0, 0.01, 0.0, 0.0, 0.0, 0.01)"
2025/07/11/14:08:34.270602,20,1752242914,270229624,imu_link,0.0024161881102442782,-0.010856439198590652,-0.9731666089573526,0.2298326586309929,"(0.001, 0.0, 0.0, 0.0, 0.001, 0.0, 0.0, 0.0, 0.001)",0.0,0.0,0.0,"(1e-05, 0.0, 0.0, 0.0, 1e-05, 0.0, 0.0, 0.0, 1e-05)",0.0,0.2009765625,9.8095703125,"(0.01, 0.0, 0.0, 0.0, 0.01, 0.0, 0.0, 0.0, 0.01)"
2025/07/11/14:08:34.282695,21,1752242914,282357486,imu_link,0.0024161881102442782,-0.010856439198590652,-0.9731666089573526,0.2298326586309929,"(0.001, 0.0, 0.0, 0.0, 0.001, 0.0, 0.0, 0.0, 0.001)",0.0,0.0,0.0,"(1e-05, 0.0, 0.0, 0.0, 1e-05, 0.0, 0.0, 0.0, 1e-05)",0.0,0.20576171875000002,9.8095703125,"(0.01, 0.0, 0.0, 0.0, 0.01, 0.0, 0.0, 0.0, 0.01)"
2025/07/11/14:08:34.333014,22,1752242914,332604722,imu_link,0.0024161881102442782,-0.010856439198590652,-0.9731666089573526,0.2298326586309929,"(0.001, 0.0, 0.0, 0.0, 0.001, 0.0, 0.0, 0.0, 0.001)",0.0,0.0,0.0,"(1e-05, 0.0, 0.0, 0.0, 1e-05, 0.0, 0.0, 0.0, 1e-05)",0.0,0.2009765625,9.8095703125,"(0.01, 0.0, 0.0, 0.0, 0.01, 0.0, 0.0, 0.0, 0.01)"
2025/07/11/14:08:34.370559,23,1752242914,370219361,imu_link,0.0024161881102442782,-0.010856439198590652,-0.9731666089573526,0.2298326586309929,"(0.001, 0.0, 0.0, 0.0, 0.001, 0.0, 0.0, 0.0, 0.001)",0.0,0.0,0.0,"(1e-05, 0.0, 0.0, 0.0, 1e-05, 0.0, 0.0, 0.0, 1e-05)",0.0,0.2009765625,9.8095703125,"(0.01, 0.0, 0.0, 0.0, 0.01, 0.0, 0.0, 0.0, 0.01)"
2025/07/11/14:08:34.383338,24,1752242914,382952382,imu_link,0.0024161881102442782,-0.010856439198590652,-0.9731666089573526,0.2298326586309929,"(0.001, 0.0, 0.0, 0.0, 0.001, 0.0, 0.0, 0.0, 0.001)",0.0,0.0,0.0,"(1e-05, 0.0, 0.0, 0.0, 1e-05, 0.0, 0.0, 0.0, 1e-05)",0.0,0.20576171875000002,9.8095703125,"(0.01, 0.0, 0.0, 0.0, 0.01, 0.0, 0.0, 0.0, 0.01)"
2025/07/11/14:08:34.433725,25,1752242914,433182930,imu_link,0.0024161881102442782,-0.010856439198590652,-0.9731666089573526,0.2298326586309929,"(0.001, 0.0, 0.0, 0.0, 0.001, 0.0, 0.0, 0.0, 0.001)",0.0,0.0,0.0,"(1e-05, 0.0, 0.0, 0.0, 1e-05, 0.0, 0.0, 0.0, 1e-05)",0.0,0.20576171875000002,9.8095703125,"(0.01, 0.0, 0.0, 0.0, 0.01, 0.0, 0.0, 0.0, 0.01)"
2025/07/11/14:08:34.470962,26,1752242914,470448181,imu_link,0.0024161881102442782,-0.010856439198590652,-0.9731666089573526,0.2298326586309929,"(0.001, 0.0, 0.0, 0.0, 0.001, 0.0, 0.0, 0.0, 0.001)",0.0,0.0,0.0,"(1e-05, 0.0, 0.0, 0.0, 1e-05, 0.0, 0.0, 0.0, 1e-05)",0.0,0.20576171875000002,9.8095703125,"(0.01, 0.0, 0.0, 0.0, 0.01, 0.0, 0.0, 0.0, 0.01)"
2025/07/11/14:08:34.484050,27,1752242914,483643993,imu_link,0.0024161881102442782,-0.010856439198590652,-0.9731666089573526,0.2298326586309929,"(0.001, 0.0, 0.0, 0.0, 0.001, 0.0, 0.0, 0.0, 0.001)",0.0,0.0,0.0,"(1e-05, 0.0, 0.0, 0.0, 1e-05, 0.0, 0.0, 0.0, 1e-05)",0.0,0.20576171875000002,9.814355468750001,"(0.01, 0.0, 0.0, 0.0, 0.01, 0.0, 0.0, 0.0, 0.01)"
2025/07/11/14:08:34.534152,28,1752242914,533699221,imu_link,0.0024161881102442782,-0.010856439198590652,-0.9731666089573526,0.2298326586309929,"(0.001, 0.0, 0.0, 0.0, 0.001, 0.0, 0.0, 0.0, 0.001)",0.0,0.0,0.0,"(1e-05, 0.0, 0.0, 0.0, 1e-05, 0.0, 0.0, 0.0, 1e-05)",0.0,0.20576171875000002,9.8095703125,"(0.01, 0.0, 0.0, 0.0, 0.01, 0.0, 0.0, 0.0, 0.01)"
2025/07/11/14:08:34.570726,29,1752242914,570265464,imu_link,0.0024161881102442782,-0.010856439198590652,-0.9731666089573526,0.2298326586309929,"(0.001, 0.0, 0.0, 0.0, 0.001, 0.0, 0.0, 0.0, 0.001)",0.0,0.0,0.0,"(1e-05, 0.0, 0.0, 0.0, 1e-05, 0.0, 0.0, 0.0, 1e-05)",0.0,0.20576171875000002,9.8095703125,"(0.01, 0.0, 0.0, 0.0, 0.01, 0.0, 0.0, 0.0, 0.01)"
2025/07/11/14:08:34.584557,30,1752242914,584082831,imu_link,0.0024161881102442782,-0.010856439198590652,-0.9731666089573526,0.2298326586309929,"(0.001, 0.0, 0.0, 0.0, 0.001, 0.0, 0.0, 0.0, 0.001)",0.0,0.0,0.0,"(1e-05, 0.0, 0.0, 0.0, 1e-05, 0.0, 0.0, 0.0, 1e-05)",0.0,0.2009765625,9.8095703125,"(0.01, 0.0, 0.0, 0.0, 0.01, 0.0, 0.0, 0.0, 0.01)"
2025/07/11/14:08:34.635004,31,1752242914,634400494,imu_link,0.0024161881102442782,-0.010856439198590652,-0.9731666089573526,0.2298326586309929,"(0.001, 0.0, 0.0, 0.0, 0.001, 0.0, 0.0, 0.0, 0.001)",0.0,0.0,0.0,"(1e-05, 0.0, 0.0, 0.0, 1e-05, 0.0, 0.0, 0.0, 1e-05)",0.0,0.20576171875000002,9.8095703125,"(0.01, 0.0, 0.0, 0.0, 0.01, 0.0, 0.0, 0.0, 0.01)"
2025/07/11/14:08:34.670663,32,1752242914,670247455,imu_link,0.0024161881102442782,-0.010856439198590652,-0.9731666089573526,0.2298326586309929,"(0.001, 0.0, 0.0, 0.0, 0.001, 0.0, 0.0, 0.0, 0.001)",0.0,0.0,0.0,"(1e-05, 0.0, 0.0, 0.0, 1e-05, 0.0, 0.0, 0.0, 1e-05)",0.0,0.20576171875000002,9.8095703125,"(0.01, 0.0, 0.0, 0.0, 0.01, 0.0, 0.0, 0.0, 0.01)"
2025/07/11/14:08:34.684862,33,1752242914,684474694,imu_link,0.0024161881102442782,-0.010856439198590652,-0.9731666089573526,0.2298326586309929,"(0.001, 0.0, 0.0, 0.0, 0.001, 0.0, 0.0, 0.0, 0.001)",0.0,0.0,0.0,"(1e-05, 0.0, 0.0, 0.0, 1e-05, 0.0, 0.0, 0.0, 1e-05)",0.0,0.2009765625,9.8095703125,"(0.01, 0.0, 0.0, 0.0, 0.01, 0.0, 0.0, 0.0, 0.01)"
2025/07/11/14:08:34.735239,34,1752242914,734697065,imu_link,0.0024161881102442782,-0.010856439198590652,-0.9731666089573526,0.2298326586309929,"(0.001, 0.0, 0.0, 0.0, 0.001, 0.0, 0.0, 0.0, 0.001)",0.0,0.0,0.0,"(1e-05, 0.0, 0.0, 0.0, 1e-05, 0.0, 0.0, 0.0, 1e-05)",0.0,0.20576171875000002,9.8095703125,"(0.01, 0.0, 0.0, 0.0, 0.01, 0.0, 0.0, 0.0, 0.01)"
2025/07/11/14:08:34.770573,35,1752242914,770196842,imu_link,0.0024161881102442782,-0.010856439198590652,-0.9731666089573526,0.2298326586309929,"(0.001, 0.0, 0.0, 0.0, 0.001, 0.0, 0.0, 0.0, 0.001)",0.0,0.0,0.0,"(1e-05, 0.0, 0.0, 0.0, 1e-05, 0.0, 0.0, 0.0, 1e-05)",0.0,0.20576171875000002,9.8095703125,"(0.01, 0.0, 0.0, 0.0, 0.01, 0.0, 0.0, 0.0, 0.01)"
2025/07/11/14:08:34.785577,36,1752242914,785147754,imu_link,0.0024161881102442782,-0.010856439198590652,-0.9731666089573526,0.2298326586309929,"(0.001, 0.0, 0.0, 0.0, 0.001, 0.0, 0.0, 0.0, 0.001)",0.0,0.0,0.0,"(1e-05, 0.0, 0.0, 0.0, 1e-05, 0.0, 0.0, 0.0, 1e-05)",0.00478515625,0.20576171875000002,9.8095703125,"(0.01, 0.0, 0.0, 0.0, 0.01, 0.0, 0.0, 0.0, 0.01)"
2025/07/11/14:08:34.835940,37,1752242914,835318479,imu_link,0.0024161881102442782,-0.010856439198590652,-0.9731666089573526,0.2298326586309929,"(0.001, 0.0, 0.0, 0.0, 0.001, 0.0, 0.0, 0.0, 0.001)",0.0,0.0,0.0,"(1e-05, 0.0, 0.0, 0.0, 1e-05, 0.0, 0.0, 0.0, 1e-05)",0.0,0.20576171875000002,9.8095703125,"(0.01, 0.0, 0.0, 0.0, 0.01, 0.0, 0.0, 0.0, 0.01)"
2025/07/11/14:08:34.870745,38,1752242914,870225556,imu_link,0.0024161881102442782,-0.010856439198590652,-0.9731666089573526,0.2298326586309929,"(0.001, 0.0, 0.0, 0.0, 0.001, 0.0, 0.0, 0.0, 0.001)",0.0,0.0,0.0,"(1e-05, 0.0, 0.0, 0.0, 1e-05, 0.0, 0.0, 0.0, 1e-05)",0.0,0.20576171875000002,9.8095703125,"(0.01, 0.0, 0.0, 0.0, 0.01, 0.0, 0.0, 0.0, 0.01)"
2025/07/11/14:08:34.885988,39,1752242914,885570667,imu_link,0.0024161881102442782,-0.010856439198590652,-0.9731666089573526,0.2298326586309929,"(0.001, 0.0, 0.0, 0.0, 0.001, 0.0, 0.0, 0.0, 0.001)",0.0,0.0,0.0,"(1e-05, 0.0, 0.0, 0.0, 1e-05, 0.0, 0.0, 0.0, 1e-05)",0.0,0.2009765625,9.8095703125,"(0.01, 0.0, 0.0, 0.0, 0.01, 0.0, 0.0, 0.0, 0.01)"
2025/07/11/14:08:34.936418,40,1752242914,935760354,imu_link,0.0024161881102442782,-0.010856439198590652,-0.9731666089573526,0.2298326586309929,"(0.001, 0.0, 0.0, 0.0, 0.001, 0.0, 0.0, 0.0, 0.001)",0.0,0.0,0.0,"(1e-05, 0.0, 0.0, 0.0, 1e-05, 0.0, 0.0, 0.0, 1e-05)",0.0,0.20576171875000002,9.814355468750001,"(0.01, 0.0, 0.0, 0.0, 0.01, 0.0, 0.0, 0.0, 0.01)"
2025/07/11/14:08:34.971081,41,1752242914,970685211,imu_link,0.0024161881102442782,-0.010856439198590652,-0.9731666089573526,0.2298326586309929,"(0.001, 0.0, 0.0, 0.0, 0.001, 0.0, 0.0, 0.0, 0.001)",0.0,0.0,0.0,"(1e-05, 0.0, 0.0, 0.0, 1e-05, 0.0, 0.0, 0.0, 1e-05)",0.0,0.20576171875000002,9.814355468750001,"(0.01, 0.0, 0.0, 0.0, 0.01, 0.0, 0.0, 0.0, 0.01)"
2025/07/11/14:08:34.986552,42,1752242914,986023395,imu_link,0.0024161881102442782,-0.010856439198590652,-0.9731666089573526,0.2298326586309929,"(0.001, 0.0, 0.0, 0.0, 0.001, 0.0, 0.0, 0.0, 0.001)",0.0,0.0,0.0,"(1e-05, 0.0, 0.0, 0.0, 1e-05, 0.0, 0.0, 0.0, 1e-05)",0.0,0.2009765625,9.814355468750001,"(0.01, 0.0, 0.0, 0.0, 0.01, 0.0, 0.0, 0.0, 0.01)"
2025/07/11/14:08:35.036904,43,1752242915,36295446,imu_link,0.0024161881102442782,-0.010856439198590652,-0.9731666089573526,0.2298326586309929,"(0.001, 0.0, 0.0, 0.0, 0.001, 0.0, 0.0, 0.0, 0.001)",0.0,0.0,0.0,"(1e-05, 0.0, 0.0, 0.0, 1e-05, 0.0, 0.0, 0.0, 1e-05)",0.0,0.20576171875000002,9.8095703125,"(0.01, 0.0, 0.0, 0.0, 0.01, 0.0, 0.0, 0.0, 0.01)"
2025/07/11/14:08:35.070694,44,1752242915,70276739,imu_link,0.0024161881102442782,-0.010856439198590652,-0.9731666089573526,0.2298326586309929,"(0.001, 0.0, 0.0, 0.0, 0.001, 0.0, 0.0, 0.0, 0.001)",0.0,0.0,0.0,"(1e-05, 0.0, 0.0, 0.0, 1e-05, 0.0, 0.0, 0.0, 1e-05)",0.0,0.20576171875000002,9.8095703125,"(0.01, 0.0, 0.0, 0.0, 0.01, 0.0, 0.0, 0.0, 0.01)"
2025/07/11/14:08:35.086882,45,1752242915,86498945,imu_link,0.0024161881102442782,-0.010856439198590652,-0.9731666089573526,0.2298326586309929,"(0.001, 0.0, 0.0, 0.0, 0.001, 0.0, 0.0, 0.0, 0.001)",0.0,0.0,0.0,"(1e-05, 0.0, 0.0, 0.0, 1e-05, 0.0, 0.0, 0.0, 1e-05)",0.0,0.20576171875000002,9.8095703125,"(0.01, 0.0, 0.0, 0.0, 0.01, 0.0, 0.0, 0.0, 0.01)"
2025/07/11/14:08:35.137285,46,1752242915,136843267,imu_link,0.0024161881102442782,-0.010856439198590652,-0.9731666089573526,0.2298326586309929,"(0.001, 0.0, 0.0, 0.0, 0.001, 0.0, 0.0, 0.0, 0.001)",0.0,0.0,0.0,"(1e-05, 0.0, 0.0, 0.0, 1e-05, 0.0, 0.0, 0.0, 1e-05)",0.0,0.20576171875000002,9.8095703125,"(0.01, 0.0, 0.0, 0.0, 0.01, 0.0, 0.0, 0.0, 0.01)"
2025/07/11/14:08:35.170686,47,1752242915,170231539,imu_link,0.0024161881102442782,-0.010856439198590652,-0.9731666089573526,0.2298326586309929,"(0.001, 0.0, 0.0, 0.0, 0.001, 0.0, 0.0, 0.0, 0.001)",0.0,0.0,0.0,"(1e-05, 0.0, 0.0, 0.0, 1e-05, 0.0, 0.0, 0.0, 1e-05)",0.0,0.20576171875000002,9.8095703125,"(0.01, 0.0, 0.0, 0.0, 0.01, 0.0, 0.0, 0.0, 0.01)"
2025/07/11/14:08:35.187459,48,1752242915,187074998,imu_link,0.0024161881102442782,-0.010856439198590652,-0.9731666089573526,0.2298326586309929,"(0.001, 0.0, 0.0, 0.0, 0.001, 0.0, 0.0, 0.0, 0.001)",0.0,0.0,0.0,"(1e-05, 0.0, 0.0, 0.0, 1e-05, 0.0, 0.0, 0.0, 1e-05)",0.0,0.2009765625,9.814355468750001,"(0.01, 0.0, 0.0, 0.0, 0.01, 0.0, 0.0, 0.0, 0.01)"
2025/07/11/14:08:35.237809,49,1752242915,237325472,imu_link,0.0024161881102442782,-0.010856439198590652,-0.9731666089573526,0.2298326586309929,"(0.001, 0.0, 0.0, 0.0, 0.001, 0.0, 0.0, 0.0, 0.001)",0.0,0.0,0.0,"(1e-05, 0.0, 0.0, 0.0, 1e-05, 0.0, 0.0, 0.0, 1e-05)",0.00478515625,0.20576171875000002,9.8,"(0.01, 0.0, 0.0, 0.0, 0.01, 0.0, 0.0, 0.0, 0.01)"
2025/07/11/14:08:35.270677,50,1752242915,270265536,imu_link,0.0024051706425737805,-0.010809788596882024,-0.9731671282632373,0.22983277419148626,"(0.001, 0.0, 0.0, 0.0, 0.001, 0.0, 0.0, 0.0, 0.001)",0.0,0.0,0.0,"(1e-05, 0.0, 0.0, 0.0, 1e-05, 0.0, 0.0, 0.0, 1e-05)",0.00478515625,0.20576171875000002,9.8,"(0.01, 0.0, 0.0, 0.0, 0.01, 0.0, 0.0, 0.0, 0.01)"
2025/07/11/14:08:35.287931,51,1752242915,287574161,imu_link,0.0024051706425737805,-0.010809788596882024,-0.9731671282632373,0.22983277419148626,"(0.001, 0.0, 0.0, 0.0, 0.001, 0.0, 0.0, 0.0, 0.001)",0.0,0.0,0.0,"(1e-05, 0.0, 0.0, 0.0, 1e-05, 0.0, 0.0, 0.0, 1e-05)",0.0,0.20576171875000002,9.8095703125,"(0.01, 0.0, 0.0, 0.0, 0.01, 0.0, 0.0, 0.0, 0.01)"
2025/07/11/14:08:35.338146,52,1752242915,337772518,imu_link,0.0024051706425737805,-0.010809788596882024,-0.9731671282632373,0.22983277419148626,"(0.001, 0.0, 0.0, 0.0, 0.001, 0.0, 0.0, 0.0, 0.001)",0.0,0.0,0.0,"(1e-05, 0.0, 0.0, 0.0, 1e-05, 0.0, 0.0, 0.0, 1e-05)",0.0,0.19619140625,9.82392578125,"(0.01, 0.0, 0.0, 0.0, 0.01, 0.0, 0.0, 0.0, 0.01)"
2025/07/11/14:08:35.370647,53,1752242915,370241513,imu_link,0.0024051706425737805,-0.010809788596882024,-0.9731671282632373,0.22983277419148626,"(0.001, 0.0, 0.0, 0.0, 0.001, 0.0, 0.0, 0.0, 0.001)",0.0,0.0,0.0,"(1e-05, 0.0, 0.0, 0.0, 1e-05, 0.0, 0.0, 0.0, 1e-05)",0.0,0.19619140625,9.82392578125,"(0.01, 0.0, 0.0, 0.0, 0.01, 0.0, 0.0, 0.0, 0.01)"
2025/07/11/14:08:35.388552,54,1752242915,388094199,imu_link,0.0024051706425737805,-0.010809788596882024,-0.9731671282632373,0.22983277419148626,"(0.001, 0.0, 0.0, 0.0, 0.001, 0.0, 0.0, 0.0, 0.001)",0.0,0.0,0.0,"(1e-05, 0.0, 0.0, 0.0, 1e-05, 0.0, 0.0, 0.0, 1e-05)",0.00478515625,0.2009765625,9.8,"(0.01, 0.0, 0.0, 0.0, 0.01, 0.0, 0.0, 0.0, 0.01)"
2025/07/11/14:08:35.438799,55,1752242915,438384722,imu_link,0.0024051706425737805,-0.010809788596882024,-0.9731671282632373,0.22983277419148626,"(0.001, 0.0, 0.0, 0.0, 0.001, 0.0, 0.0, 0.0, 0.001)",0.0,0.0,0.0,"(1e-05, 0.0, 0.0, 0.0, 1e-05, 0.0, 0.0, 0.0, 1e-05)",0.00478515625,0.2009765625,9.8095703125,"(0.01, 0.0, 0.0, 0.0, 0.01, 0.0, 0.0, 0.0, 0.01)"
2025/07/11/14:08:35.470748,56,1752242915,470254914,imu_link,0.0024051706425737805,-0.010809788596882024,-0.9731671282632373,0.22983277419148626,"(0.001, 0.0, 0.0, 0.0, 0.001, 0.0, 0.0, 0.0, 0.001)",0.0,0.0,0.0,"(1e-05, 0.0, 0.0, 0.0, 1e-05, 0.0, 0.0, 0.0, 1e-05)",0.00478515625,0.2009765625,9.8095703125,"(0.01, 0.0, 0.0, 0.0, 0.01, 0.0, 0.0, 0.0, 0.01)"
2025/07/11/14:08:35.489105,57,1752242915,488745781,imu_link,0.0024051706425737805,-0.010809788596882024,-0.9731671282632373,0.22983277419148626,"(0.001, 0.0, 0.0, 0.0, 0.001, 0.0, 0.0, 0.0, 0.001)",0.0,0.0,0.0,"(1e-05, 0.0, 0.0, 0.0, 1e-05, 0.0, 0.0, 0.0, 1e-05)",0.0,0.20576171875000002,9.814355468750001,"(0.01, 0.0, 0.0, 0.0, 0.01, 0.0, 0.0, 0.0, 0.01)"
2025/07/11/14:08:35.539710,58,1752242915,539247313,imu_link,0.0024051706425737805,-0.010809788596882024,-0.9731671282632373,0.22983277419148626,"(0.001, 0.0, 0.0, 0.0, 0.001, 0.0, 0.0, 0.0, 0.001)",0.0,0.0,0.0,"(1e-05, 0.0, 0.0, 0.0, 1e-05, 0.0, 0.0, 0.0, 1e-05)",0.0,0.20576171875000002,9.8095703125,"(0.01, 0.0, 0.0, 0.0, 0.01, 0.0, 0.0, 0.0, 0.01)"
2025/07/11/14:08:35.570758,59,1752242915,570213031,imu_link,0.0024051706425737805,-0.010809788596882024,-0.9731671282632373,0.22983277419148626,"(0.001, 0.0, 0.0, 0.0, 0.001, 0.0, 0.0, 0.0, 0.001)",0.0,0.0,0.0,"(1e-05, 0.0, 0.0, 0.0, 1e-05, 0.0, 0.0, 0.0, 1e-05)",0.0,0.20576171875000002,9.8095703125,"(0.01, 0.0, 0.0, 0.0, 0.01, 0.0, 0.0, 0.0, 0.01)"
2025/07/11/14:08:35.589625,60,1752242915,589199352,imu_link,0.0024051706425737805,-0.010809788596882024,-0.9731671282632373,0.22983277419148626,"(0.001, 0.0, 0.0, 0.0, 0.001, 0.0, 0.0, 0.0, 0.001)",0.0,0.0,0.0,"(1e-05, 0.0, 0.0, 0.0, 1e-05, 0.0, 0.0, 0.0, 1e-05)",0.00478515625,0.20576171875000002,9.8095703125,"(0.01, 0.0, 0.0, 0.0, 0.01, 0.0, 0.0, 0.0, 0.01)"
2025/07/11/14:08:35.640200,61,1752242915,639690852,imu_link,0.0024051706425737805,-0.010809788596882024,-0.9731671282632373,0.22983277419148626,"(0.001, 0.0, 0.0, 0.0, 0.001, 0.0, 0.0, 0.0, 0.001)",0.0,0.0,0.0,"(1e-05, 0.0, 0.0, 0.0, 1e-05, 0.0, 0.0, 0.0, 1e-05)",0.00478515625,0.20576171875000002,9.8095703125,"(0.01, 0.0, 0.0, 0.0, 0.01, 0.0, 0.0, 0.0, 0.01)"
2025/07/11/14:08:35.670686,62,1752242915,670228126,imu_link,0.0024051706425737805,-0.010809788596882024,-0.9731671282632373,0.22983277419148626,"(0.001, 0.0, 0.0, 0.0, 0.001, 0.0, 0.0, 0.0, 0.001)",0.0,0.0,0.0,"(1e-05, 0.0, 0.0, 0.0, 1e-05, 0.0, 0.0, 0.0, 1e-05)",0.00478515625,0.20576171875000002,9.8095703125,"(0.01, 0.0, 0.0, 0.0, 0.01, 0.0, 0.0, 0.0, 0.01)"
2025/07/11/14:08:35.690232,63,1752242915,689772981,imu_link,0.0024051706425737805,-0.010809788596882024,-0.9731671282632373,0.22983277419148626,"(0.001, 0.0, 0.0, 0.0, 0.001, 0.0, 0.0, 0.0, 0.001)",0.0,0.0,0.0,"(1e-05, 0.0, 0.0, 0.0, 1e-05, 0.0, 0.0, 0.0, 1e-05)",0.0,0.2009765625,9.814355468750001,"(0.01, 0.0, 0.0, 0.0, 0.01, 0.0, 0.0, 0.0, 0.01)"
2025/07/11/14:08:35.740668,64,1752242915,740187569,imu_link,0.0024051706425737805,-0.010809788596882024,-0.9731671282632373,0.22983277419148626,"(0.001, 0.0, 0.0, 0.0, 0.001, 0.0, 0.0, 0.0, 0.001)",0.0,0.0,0.0,"(1e-05, 0.0, 0.0, 0.0, 1e-05, 0.0, 0.0, 0.0, 1e-05)",0.00478515625,0.20576171875000002,9.8095703125,"(0.01, 0.0, 0.0, 0.0, 0.01, 0.0, 0.0, 0.0, 0.01)"
2025/07/11/14:08:35.770746,65,1752242915,770223536,imu_link,0.0024051706425737805,-0.010809788596882024,-0.9731671282632373,0.22983277419148626,"(0.001, 0.0, 0.0, 0.0, 0.001, 0.0, 0.0, 0.0, 0.001)",0.0,0.0,0.0,"(1e-05, 0.0, 0.0, 0.0, 1e-05, 0.0, 0.0, 0.0, 1e-05)",0.00478515625,0.20576171875000002,9.8095703125,"(0.01, 0.0, 0.0, 0.0, 0.01, 0.0, 0.0, 0.0, 0.01)"
2025/07/11/14:08:35.790604,66,1752242915,790237857,imu_link,0.0024051706425737805,-0.010809788596882024,-0.9731671282632373,0.22983277419148626,"(0.001, 0.0, 0.0, 0.0, 0.001, 0.0, 0.0, 0.0, 0.001)",0.0,0.0,0.0,"(1e-05, 0.0, 0.0, 0.0, 1e-05, 0.0, 0.0, 0.0, 1e-05)",0.00478515625,0.20576171875000002,9.8095703125,"(0.01, 0.0, 0.0, 0.0, 0.01, 0.0, 0.0, 0.0, 0.01)"
2025/07/11/14:08:35.841194,67,1752242915,840739479,imu_link,0.0024051706425737805,-0.010809788596882024,-0.9731671282632373,0.22983277419148626,"(0.001, 0.0, 0.0, 0.0, 0.001, 0.0, 0.0, 0.0, 0.001)",0.0,0.0,0.0,"(1e-05, 0.0, 0.0, 0.0, 1e-05, 0.0, 0.0, 0.0, 1e-05)",0.00478515625,0.20576171875000002,9.8095703125,"(0.01, 0.0, 0.0, 0.0, 0.01, 0.0, 0.0, 0.0, 0.01)"
2025/07/11/14:08:35.870636,68,1752242915,870227215,imu_link,0.0024051706425737805,-0.010809788596882024,-0.9731671282632373,0.22983277419148626,"(0.001, 0.0, 0.0, 0.0, 0.001, 0.0, 0.0, 0.0, 0.001)",0.0,0.0,0.0,"(1e-05, 0.0, 0.0, 0.0, 1e-05, 0.0, 0.0, 0.0, 1e-05)",0.00478515625,0.20576171875000002,9.8095703125,"(0.01, 0.0, 0.0, 0.0, 0.01, 0.0, 0.0, 0.0, 0.01)"
2025/07/11/14:08:35.891182,69,1752242915,890789004,imu_link,0.0024051706425737805,-0.010809788596882024,-0.9731671282632373,0.22983277419148626,"(0.001, 0.0, 0.0, 0.0, 0.001, 0.0, 0.0, 0.0, 0.001)",0.0,0.0,0.0,"(1e-05, 0.0, 0.0, 0.0, 1e-05, 0.0, 0.0, 0.0, 1e-05)",0.0,0.2009765625,9.8095703125,"(0.01, 0.0, 0.0, 0.0, 0.01, 0.0, 0.0, 0.0, 0.01)"
2025/07/11/14:08:35.941686,70,1752242915,941252431,imu_link,0.0024051706425737805,-0.010809788596882024,-0.9731671282632373,0.22983277419148626,"(0.001, 0.0, 0.0, 0.0, 0.001, 0.0, 0.0, 0.0, 0.001)",0.0,0.0,0.0,"(1e-05, 0.0, 0.0, 0.0, 1e-05, 0.0, 0.0, 0.0, 1e-05)",0.0,0.2009765625,9.8095703125,"(0.01, 0.0, 0.0, 0.0, 0.01, 0.0, 0.0, 0.0, 0.01)"
2025/07/11/14:08:35.970673,71,1752242915,970221522,imu_link,0.0024051706425737805,-0.010809788596882024,-0.9731671282632373,0.22983277419148626,"(0.001, 0.0, 0.0, 0.0, 0.001, 0.0, 0.0, 0.0, 0.001)",0.0,0.0,0.0,"(1e-05, 0.0, 0.0, 0.0, 1e-05, 0.0, 0.0, 0.0, 1e-05)",0.0,0.2009765625,9.8095703125,"(0.01, 0.0, 0.0, 0.0, 0.01, 0.0, 0.0, 0.0, 0.01)"
2025/07/11/14:08:35.991700,72,1752242915,991282724,imu_link,0.0024051706425737805,-0.010809788596882024,-0.9731671282632373,0.22983277419148626,"(0.001, 0.0, 0.0, 0.0, 0.001, 0.0, 0.0, 0.0, 0.001)",0.0,0.0,0.0,"(1e-05, 0.0, 0.0, 0.0, 1e-05, 0.0, 0.0, 0.0, 1e-05)",0.0,0.20576171875000002,9.814355468750001,"(0.01, 0.0, 0.0, 0.0, 0.01, 0.0, 0.0, 0.0, 0.01)"
2025/07/11/14:08:36.042360,73,1752242916,41846007,imu_link,0.0024051706425737805,-0.010809788596882024,-0.9731671282632373,0.22983277419148626,"(0.001, 0.0, 0.0, 0.0, 0.001, 0.0, 0.0, 0.0, 0.001)",0.0,0.0,0.0,"(1e-05, 0.0, 0.0, 0.0, 1e-05, 0.0, 0.0, 0.0, 1e-05)",0.0,0.20576171875000002,9.8095703125,"(0.01, 0.0, 0.0, 0.0, 0.01, 0.0, 0.0, 0.0, 0.01)"
2025/07/11/14:08:36.070578,74,1752242916,70201148,imu_link,0.0024051706425737805,-0.010809788596882024,-0.9731671282632373,0.22983277419148626,"(0.001, 0.0, 0.0, 0.0, 0.001, 0.0, 0.0, 0.0, 0.001)",0.0,0.0,0.0,"(1e-05, 0.0, 0.0, 0.0, 1e-05, 0.0, 0.0, 0.0, 1e-05)",0.0,0.20576171875000002,9.8095703125,"(0.01, 0.0, 0.0, 0.0, 0.01, 0.0, 0.0, 0.0, 0.01)"
2025/07/11/14:08:36.092001,75,1752242916,91712656,imu_link,0.0024051706425737805,-0.010809788596882024,-0.9731671282632373,0.22983277419148626,"(0.001, 0.0, 0.0, 0.0, 0.001, 0.0, 0.0, 0.0, 0.001)",0.0,0.0,0.0,"(1e-05, 0.0, 0.0, 0.0, 1e-05, 0.0, 0.0, 0.0, 1e-05)",0.0,0.20576171875000002,9.8095703125,"(0.01, 0.0, 0.0, 0.0, 0.01, 0.0, 0.0, 0.0, 0.01)"
2025/07/11/14:08:36.142367,76,1752242916,142000042,imu_link,0.0024051706425737805,-0.010809788596882024,-0.9731671282632373,0.22983277419148626,"(0.001, 0.0, 0.0, 0.0, 0.001, 0.0, 0.0, 0.0, 0.001)",0.0,0.0,0.0,"(1e-05, 0.0, 0.0, 0.0, 1e-05, 0.0, 0.0, 0.0, 1e-05)",0.0,0.19140625,9.82392578125,"(0.01, 0.0, 0.0, 0.0, 0.01, 0.0, 0.0, 0.0, 0.01)"
2025/07/11/14:08:36.170643,77,1752242916,170241460,imu_link,0.0024051706425737805,-0.010809788596882024,-0.9731671282632373,0.22983277419148626,"(0.001, 0.0, 0.0, 0.0, 0.001, 0.0, 0.0, 0.0, 0.001)",0.0,0.0,0.0,"(1e-05, 0.0, 0.0, 0.0, 1e-05, 0.0, 0.0, 0.0, 1e-05)",0.0,0.19140625,9.82392578125,"(0.01, 0.0, 0.0, 0.0, 0.01, 0.0, 0.0, 0.0, 0.01)"
2025/07/11/14:08:36.192601,78,1752242916,192262663,imu_link,0.0024051706425737805,-0.010809788596882024,-0.9731671282632373,0.22983277419148626,"(0.001, 0.0, 0.0, 0.0, 0.001, 0.0, 0.0, 0.0, 0.001)",0.0,0.0,0.0,"(1e-05, 0.0, 0.0, 0.0, 1e-05, 0.0, 0.0, 0.0, 1e-05)",0.0,0.21054687500000002,9.790429687500001,"(0.01, 0.0, 0.0, 0.0, 0.01, 0.0, 0.0, 0.0, 0.01)"
2025/07/11/14:08:36.243069,79,1752242916,242669283,imu_link,0.0024051706425737805,-0.010809788596882024,-0.9731671282632373,0.22983277419148626,"(0.001, 0.0, 0.0, 0.0, 0.001, 0.0, 0.0, 0.0, 0.001)",0.0,0.0,0.0,"(1e-05, 0.0, 0.0, 0.0, 1e-05, 0.0, 0.0, 0.0, 1e-05)",0.0,0.19619140625,9.8287109375,"(0.01, 0.0, 0.0, 0.0, 0.01, 0.0, 0.0, 0.0, 0.01)"
2025/07/11/14:08:36.270629,80,1752242916,270232662,imu_link,0.0024051706425737805,-0.010809788596882024,-0.9731671282632373,0.22983277419148626,"(0.001, 0.0, 0.0, 0.0, 0.001, 0.0, 0.0, 0.0, 0.001)",0.0,0.0,0.0,"(1e-05, 0.0, 0.0, 0.0, 1e-05, 0.0, 0.0, 0.0, 1e-05)",0.0,0.19619140625,9.8287109375,"(0.01, 0.0, 0.0, 0.0, 0.01, 0.0, 0.0, 0.0, 0.01)"
2025/07/11/14:08:36.293215,81,1752242916,292848889,imu_link,0.0024051706425737805,-0.010809788596882024,-0.9731671282632373,0.22983277419148626,"(0.001, 0.0, 0.0, 0.0, 0.001, 0.0, 0.0, 0.0, 0.001)",0.0,0.0,0.0,"(1e-05, 0.0, 0.0, 0.0, 1e-05, 0.0, 0.0, 0.0, 1e-05)",0.0,0.20576171875000002,9.8,"(0.01, 0.0, 0.0, 0.0, 0.01, 0.0, 0.0, 0.0, 0.01)"
2025/07/11/14:08:36.343404,82,1752242916,343066248,imu_link,0.0024051706425737805,-0.010809788596882024,-0.9731671282632373,0.22983277419148626,"(0.001, 0.0, 0.0, 0.0, 0.001, 0.0, 0.0, 0.0, 0.001)",0.0,0.0,0.0,"(1e-05, 0.0, 0.0, 0.0, 1e-05, 0.0, 0.0, 0.0, 1e-05)",0.00478515625,0.2009765625,9.814355468750001,"(0.01, 0.0, 0.0, 0.0, 0.01, 0.0, 0.0, 0.0, 0.01)"
2025/07/11/14:08:36.370818,83,1752242916,370412443,imu_link,0.0024051706425737805,-0.010809788596882024,-0.9731671282632373,0.22983277419148626,"(0.001, 0.0, 0.0, 0.0, 0.001, 0.0, 0.0, 0.0, 0.001)",0.0,0.0,0.0,"(1e-05, 0.0, 0.0, 0.0, 1e-05, 0.0, 0.0, 0.0, 1e-05)",0.00478515625,0.2009765625,9.814355468750001,"(0.01, 0.0, 0.0, 0.0, 0.01, 0.0, 0.0, 0.0, 0.01)"
2025/07/11/14:08:36.393741,84,1752242916,393372456,imu_link,0.0024051706425737805,-0.010809788596882024,-0.9731671282632373,0.22983277419148626,"(0.001, 0.0, 0.0, 0.0, 0.001, 0.0, 0.0, 0.0, 0.001)",0.0,0.0,0.0,"(1e-05, 0.0, 0.0, 0.0, 1e-05, 0.0, 0.0, 0.0, 1e-05)",0.0,0.20576171875000002,9.8095703125,"(0.01, 0.0, 0.0, 0.0, 0.01, 0.0, 0.0, 0.0, 0.01)"
2025/07/11/14:08:36.444389,85,1752242916,443849193,imu_link,0.0024051706425737805,-0.010809788596882024,-0.9731671282632373,0.22983277419148626,"(0.001, 0.0, 0.0, 0.0, 0.001, 0.0, 0.0, 0.0, 0.001)",0.0,0.0,0.0,"(1e-05, 0.0, 0.0, 0.0, 1e-05, 0.0, 0.0, 0.0, 1e-05)",0.0,0.20576171875000002,9.8095703125,"(0.01, 0.0, 0.0, 0.0, 0.01, 0.0, 0.0, 0.0, 0.01)"
2025/07/11/14:08:36.470738,86,1752242916,470295044,imu_link,0.0024051706425737805,-0.010809788596882024,-0.9731671282632373,0.22983277419148626,"(0.001, 0.0, 0.0, 0.0, 0.001, 0.0, 0.0, 0.0, 0.001)",0.0,0.0,0.0,"(1e-05, 0.0, 0.0, 0.0, 1e-05, 0.0, 0.0, 0.0, 1e-05)",0.0,0.20576171875000002,9.8095703125,"(0.01, 0.0, 0.0, 0.0, 0.01, 0.0, 0.0, 0.0, 0.01)"
2025/07/11/14:08:36.494474,87,1752242916,493937355,imu_link,0.0024051706425737805,-0.010809788596882024,-0.9731671282632373,0.22983277419148626,"(0.001, 0.0, 0.0, 0.0, 0.001, 0.0, 0.0, 0.0, 0.001)",0.0,0.0,0.0,"(1e-05, 0.0, 0.0, 0.0, 1e-05, 0.0, 0.0, 0.0, 1e-05)",0.0,0.2009765625,9.814355468750001,"(0.01, 0.0, 0.0, 0.0, 0.01, 0.0, 0.0, 0.0, 0.01)"
2025/07/11/14:08:36.544859,88,1752242916,544356685,imu_link,0.0024051706425737805,-0.010809788596882024,-0.9731671282632373,0.22983277419148626,"(0.001, 0.0, 0.0, 0.0, 0.001, 0.0, 0.0, 0.0, 0.001)",0.0,0.0,0.0,"(1e-05, 0.0, 0.0, 0.0, 1e-05, 0.0, 0.0, 0.0, 1e-05)",0.0,0.20576171875000002,9.8095703125,"(0.01, 0.0, 0.0, 0.0, 0.01, 0.0, 0.0, 0.0, 0.01)"
2025/07/11/14:08:36.570826,89,1752242916,570257412,imu_link,0.0024051706425737805,-0.010809788596882024,-0.9731671282632373,0.22983277419148626,"(0.001, 0.0, 0.0, 0.0, 0.001, 0.0, 0.0, 0.0, 0.001)",0.0,0.0,0.0,"(1e-05, 0.0, 0.0, 0.0, 1e-05, 0.0, 0.0, 0.0, 1e-05)",0.0,0.20576171875000002,9.8095703125,"(0.01, 0.0, 0.0, 0.0, 0.01, 0.0, 0.0, 0.0, 0.01)"
2025/07/11/14:08:36.594975,90,1752242916,594512146,imu_link,0.0024051706425737805,-0.010809788596882024,-0.9731671282632373,0.22983277419148626,"(0.001, 0.0, 0.0, 0.0, 0.001, 0.0, 0.0, 0.0, 0.001)",0.0,0.0,0.0,"(1e-05, 0.0, 0.0, 0.0, 1e-05, 0.0, 0.0, 0.0, 1e-05)",0.00478515625,0.2009765625,9.814355468750001,"(0.01, 0.0, 0.0, 0.0, 0.01, 0.0, 0.0, 0.0, 0.01)"
2025/07/11/14:08:36.645494,91,1752242916,645028050,imu_link,0.0024051706425737805,-0.010809788596882024,-0.9731671282632373,0.22983277419148626,"(0.001, 0.0, 0.0, 0.0, 0.001, 0.0, 0.0, 0.0, 0.001)",0.0,0.0,0.0,"(1e-05, 0.0, 0.0, 0.0, 1e-05, 0.0, 0.0, 0.0, 1e-05)",0.0,0.20576171875000002,9.8095703125,"(0.01, 0.0, 0.0, 0.0, 0.01, 0.0, 0.0, 0.0, 0.01)"
2025/07/11/14:08:36.671077,92,1752242916,670484850,imu_link,0.0024051706425737805,-0.010809788596882024,-0.9731671282632373,0.22983277419148626,"(0.001, 0.0, 0.0, 0.0, 0.001, 0.0, 0.0, 0.0, 0.001)",0.0,0.0,0.0,"(1e-05, 0.0, 0.0, 0.0, 1e-05, 0.0, 0.0, 0.0, 1e-05)",0.0,0.20576171875000002,9.8095703125,"(0.01, 0.0, 0.0, 0.0, 0.01, 0.0, 0.0, 0.0, 0.01)"
2025/07/11/14:08:36.695428,93,1752242916,694996868,imu_link,0.0024051706425737805,-0.010809788596882024,-0.9731671282632373,0.22983277419148626,"(0.001, 0.0, 0.0, 0.0, 0.001, 0.0, 0.0, 0.0, 0.001)",0.0,0.0,0.0,"(1e-05, 0.0, 0.0, 0.0, 1e-05, 0.0, 0.0, 0.0, 1e-05)",0.00478515625,0.20576171875000002,9.814355468750001,"(0.01, 0.0, 0.0, 0.0, 0.01, 0.0, 0.0, 0.0, 0.01)"
2025/07/11/14:08:36.745682,94,1752242916,745251290,imu_link,0.0024051706425737805,-0.010809788596882024,-0.9731671282632373,0.22983277419148626,"(0.001, 0.0, 0.0, 0.0, 0.001, 0.0, 0.0, 0.0, 0.001)",0.0,0.0,0.0,"(1e-05, 0.0, 0.0, 0.0, 1e-05, 0.0, 0.0, 0.0, 1e-05)",0.0,0.20576171875000002,9.8095703125,"(0.01, 0.0, 0.0, 0.0, 0.01, 0.0, 0.0, 0.0, 0.01)"
2025/07/11/14:08:36.771033,95,1752242916,770545026,imu_link,0.0024051706425737805,-0.010809788596882024,-0.9731671282632373,0.22983277419148626,"(0.001, 0.0, 0.0, 0.0, 0.001, 0.0, 0.0, 0.0, 0.001)",0.0,0.0,0.0,"(1e-05, 0.0, 0.0, 0.0, 1e-05, 0.0, 0.0, 0.0, 1e-05)",0.0,0.20576171875000002,9.8095703125,"(0.01, 0.0, 0.0, 0.0, 0.01, 0.0, 0.0, 0.0, 0.01)"
2025/07/11/14:08:36.795904,96,1752242916,795506233,imu_link,0.0024051706425737805,-0.010809788596882024,-0.9731671282632373,0.22983277419148626,"(0.001, 0.0, 0.0, 0.0, 0.001, 0.0, 0.0, 0.0, 0.001)",0.0,0.0,0.0,"(1e-05, 0.0, 0.0, 0.0, 1e-05, 0.0, 0.0, 0.0, 1e-05)",0.0,0.2009765625,9.814355468750001,"(0.01, 0.0, 0.0, 0.0, 0.01, 0.0, 0.0, 0.0, 0.01)"
2025/07/11/14:08:36.846320,97,1752242916,845815748,imu_link,0.0024051706425737805,-0.010809788596882024,-0.9731671282632373,0.22983277419148626,"(0.001, 0.0, 0.0, 0.0, 0.001, 0.0, 0.0, 0.0, 0.001)",0.0,0.0,0.0,"(1e-05, 0.0, 0.0, 0.0, 1e-05, 0.0, 0.0, 0.0, 1e-05)",0.0,0.20576171875000002,9.8095703125,"(0.01, 0.0, 0.0, 0.0, 0.01, 0.0, 0.0, 0.0, 0.01)"
2025/07/11/14:08:36.870883,98,1752242916,870431876,imu_link,0.0024051706425737805,-0.010809788596882024,-0.9731671282632373,0.22983277419148626,"(0.001, 0.0, 0.0, 0.0, 0.001, 0.0, 0.0, 0.0, 0.001)",0.0,0.0,0.0,"(1e-05, 0.0, 0.0, 0.0, 1e-05, 0.0, 0.0, 0.0, 1e-05)",0.0,0.20576171875000002,9.8095703125,"(0.01, 0.0, 0.0, 0.0, 0.01, 0.0, 0.0, 0.0, 0.01)"
2025/07/11/14:08:36.896771,99,1752242916,896369747,imu_link,0.0024051706425737805,-0.010809788596882024,-0.9731671282632373,0.22983277419148626,"(0.001, 0.0, 0.0, 0.0, 0.001, 0.0, 0.0, 0.0, 0.001)",0.0,0.0,0.0,"(1e-05, 0.0, 0.0, 0.0, 1e-05, 0.0, 0.0, 0.0, 1e-05)",0.0,0.2009765625,9.814355468750001,"(0.01, 0.0, 0.0, 0.0, 0.01, 0.0, 0.0, 0.0, 0.01)"
2025/07/11/14:08:36.946825,100,1752242916,946355300,imu_link,0.0024051706425737805,-0.010809788596882024,-0.9731671282632373,0.22983277419148626,"(0.001, 0.0, 0.0, 0.0, 0.001, 0.0, 0.0, 0.0, 0.001)",0.0,0.0,0.0,"(1e-05, 0.0, 0.0, 0.0, 1e-05, 0.0, 0.0, 0.0, 1e-05)",0.0,0.2009765625,9.8095703125,"(0.01, 0.0, 0.0, 0.0, 0.01, 0.0, 0.0, 0.0, 0.01)"
2025/07/11/14:08:36.970755,101,1752242916,970253682,imu_link,0.0024051706425737805,-0.010809788596882024,-0.9731671282632373,0.22983277419148626,"(0.001, 0.0, 0.0, 0.0, 0.001, 0.0, 0.0, 0.0, 0.001)",0.0,0.0,0.0,"(1e-05, 0.0, 0.0, 0.0, 1e-05, 0.0, 0.0, 0.0, 1e-05)",0.0,0.2009765625,9.8095703125,"(0.01, 0.0, 0.0, 0.0, 0.01, 0.0, 0.0, 0.0, 0.01)"
2025/07/11/14:08:36.997148,102,1752242916,996702209,imu_link,0.0024051706425737805,-0.010809788596882024,-0.9731671282632373,0.22983277419148626,"(0.001, 0.0, 0.0, 0.0, 0.001, 0.0, 0.0, 0.0, 0.001)",0.0,0.0,0.0,"(1e-05, 0.0, 0.0, 0.0, 1e-05, 0.0, 0.0, 0.0, 1e-05)",0.0,0.20576171875000002,9.8095703125,"(0.01, 0.0, 0.0, 0.0, 0.01, 0.0, 0.0, 0.0, 0.01)"
2025/07/11/14:08:37.047441,103,1752242917,47001230,imu_link,0.0024051706425737805,-0.010809788596882024,-0.9731671282632373,0.22983277419148626,"(0.001, 0.0, 0.0, 0.0, 0.001, 0.0, 0.0, 0.0, 0.001)",0.0,0.0,0.0,"(1e-05, 0.0, 0.0, 0.0, 1e-05, 0.0, 0.0, 0.0, 1e-05)",0.0,0.20576171875000002,9.814355468750001,"(0.01, 0.0, 0.0, 0.0, 0.01, 0.0, 0.0, 0.0, 0.01)"
2025/07/11/14:08:37.070751,104,1752242917,70295640,imu_link,0.0024051706425737805,-0.010809788596882024,-0.9731671282632373,0.22983277419148626,"(0.001, 0.0, 0.0, 0.0, 0.001, 0.0, 0.0, 0.0, 0.001)",0.0,0.0,0.0,"(1e-05, 0.0, 0.0, 0.0, 1e-05, 0.0, 0.0, 0.0, 1e-05)",0.0,0.20576171875000002,9.814355468750001,"(0.01, 0.0, 0.0, 0.0, 0.01, 0.0, 0.0, 0.0, 0.01)"
2025/07/11/14:08:37.097495,105,1752242917,97080864,imu_link,0.0024051706425737805,-0.010809788596882024,-0.9731671282632373,0.22983277419148626,"(0.001, 0.0, 0.0, 0.0, 0.001, 0.0, 0.0, 0.0, 0.001)",0.0,0.0,0.0,"(1e-05, 0.0, 0.0, 0.0, 1e-05, 0.0, 0.0, 0.0, 1e-05)",0.0,0.20576171875000002,9.80478515625,"(0.01, 0.0, 0.0, 0.0, 0.01, 0.0, 0.0, 0.0, 0.01)"
2025/07/11/14:08:37.147717,106,1752242917,147309800,imu_link,0.0024051706425737805,-0.010809788596882024,-0.9731671282632373,0.22983277419148626,"(0.001, 0.0, 0.0, 0.0, 0.001, 0.0, 0.0, 0.0, 0.001)",0.0,0.0,0.0,"(1e-05, 0.0, 0.0, 0.0, 1e-05, 0.0, 0.0, 0.0, 1e-05)",0.00478515625,0.19619140625,9.82392578125,"(0.01, 0.0, 0.0, 0.0, 0.01, 0.0, 0.0, 0.0, 0.01)"
2025/07/11/14:08:37.170757,107,1752242917,170260224,imu_link,0.0024051706425737805,-0.010809788596882024,-0.9731671282632373,0.22983277419148626,"(0.001, 0.0, 0.0, 0.0, 0.001, 0.0, 0.0, 0.0, 0.001)",0.0,0.0,0.0,"(1e-05, 0.0, 0.0, 0.0, 1e-05, 0.0, 0.0, 0.0, 1e-05)",0.00478515625,0.19619140625,9.82392578125,"(0.01, 0.0, 0.0, 0.0, 0.01, 0.0, 0.0, 0.0, 0.01)"
2025/07/11/14:08:37.198511,108,1752242917,198062993,imu_link,0.0024051706425737805,-0.010809788596882024,-0.9731671282632373,0.22983277419148626,"(0.001, 0.0, 0.0, 0.0, 0.001, 0.0, 0.0, 0.0, 0.001)",0.0,0.0,0.0,"(1e-05, 0.0, 0.0, 0.0, 1e-05, 0.0, 0.0, 0.0, 1e-05)",0.0,0.2009765625,9.80478515625,"(0.01, 0.0, 0.0, 0.0, 0.01, 0.0, 0.0, 0.0, 0.01)"
2025/07/11/14:08:37.248309,109,1752242917,247890706,imu_link,0.0024051706425737805,-0.010809788596882024,-0.9731671282632373,0.22983277419148626,"(0.001, 0.0, 0.0, 0.0, 0.001, 0.0, 0.0, 0.0, 0.001)",0.0,0.0,0.0,"(1e-05, 0.0, 0.0, 0.0, 1e-05, 0.0, 0.0, 0.0, 1e-05)",0.00478515625,0.20576171875000002,9.8095703125,"(0.01, 0.0, 0.0, 0.0, 0.01, 0.0, 0.0, 0.0, 0.01)"
2025/07/11/14:08:37.270918,110,1752242917,270421717,imu_link,0.0024051706425737805,-0.010809788596882024,-0.9731671282632373,0.22983277419148626,"(0.001, 0.0, 0.0, 0.0, 0.001, 0.0, 0.0, 0.0, 0.001)",0.0,0.0,0.0,"(1e-05, 0.0, 0.0, 0.0, 1e-05, 0.0, 0.0, 0.0, 1e-05)",0.00478515625,0.20576171875000002,9.8095703125,"(0.01, 0.0, 0.0, 0.0, 0.01, 0.0, 0.0, 0.0, 0.01)"
2025/07/11/14:08:37.298644,111,1752242917,298225507,imu_link,0.0024051706425737805,-0.010809788596882024,-0.9731671282632373,0.22983277419148626,"(0.001, 0.0, 0.0, 0.0, 0.001, 0.0, 0.0, 0.0, 0.001)",0.0,0.0,0.0,"(1e-05, 0.0, 0.0, 0.0, 1e-05, 0.0, 0.0, 0.0, 1e-05)",0.0,0.20576171875000002,9.8095703125,"(0.01, 0.0, 0.0, 0.0, 0.01, 0.0, 0.0, 0.0, 0.01)"
2025/07/11/14:08:37.348811,112,1752242917,348395963,imu_link,0.0024051706425737805,-0.010809788596882024,-0.9731671282632373,0.22983277419148626,"(0.001, 0.0, 0.0, 0.0, 0.001, 0.0, 0.0, 0.0, 0.001)",0.0,0.0,0.0,"(1e-05, 0.0, 0.0, 0.0, 1e-05, 0.0, 0.0, 0.0, 1e-05)",0.0,0.20576171875000002,9.8095703125,"(0.01, 0.0, 0.0, 0.0, 0.01, 0.0, 0.0, 0.0, 0.01)"
2025/07/11/14:08:37.370737,113,1752242917,370252083,imu_link,0.0024051706425737805,-0.010809788596882024,-0.9731671282632373,0.22983277419148626,"(0.001, 0.0, 0.0, 0.0, 0.001, 0.0, 0.0, 0.0, 0.001)",0.0,0.0,0.0,"(1e-05, 0.0, 0.0, 0.0, 1e-05, 0.0, 0.0, 0.0, 1e-05)",0.0,0.20576171875000002,9.8095703125,"(0.01, 0.0, 0.0, 0.0, 0.01, 0.0, 0.0, 0.0, 0.01)"
2025/07/11/14:08:37.399127,114,1752242917,398717506,imu_link,0.0024051706425737805,-0.010809788596882024,-0.9731671282632373,0.22983277419148626,"(0.001, 0.0, 0.0, 0.0, 0.001, 0.0, 0.0, 0.0, 0.001)",0.0,0.0,0.0,"(1e-05, 0.0, 0.0, 0.0, 1e-05, 0.0, 0.0, 0.0, 1e-05)",0.0,0.20576171875000002,9.8095703125,"(0.01, 0.0, 0.0, 0.0, 0.01, 0.0, 0.0, 0.0, 0.01)"
2025/07/11/14:08:37.449485,115,1752242917,448970023,imu_link,0.0024051706425737805,-0.010809788596882024,-0.9731671282632373,0.22983277419148626,"(0.001, 0.0, 0.0, 0.0, 0.001, 0.0, 0.0, 0.0, 0.001)",0.0,0.0,0.0,"(1e-05, 0.0, 0.0, 0.0, 1e-05, 0.0, 0.0, 0.0, 1e-05)",0.0,0.2009765625,9.814355468750001,"(0.01, 0.0, 0.0, 0.0, 0.01, 0.0, 0.0, 0.0, 0.01)"
2025/07/11/14:08:37.470768,116,1752242917,470257508,imu_link,0.0024051706425737805,-0.010809788596882024,-0.9731671282632373,0.22983277419148626,"(0.001, 0.0, 0.0, 0.0, 0.001, 0.0, 0.0, 0.0, 0.001)",0.0,0.0,0.0,"(1e-05, 0.0, 0.0, 0.0, 1e-05, 0.0, 0.0, 0.0, 1e-05)",0.0,0.2009765625,9.814355468750001,"(0.01, 0.0, 0.0, 0.0, 0.01, 0.0, 0.0, 0.0, 0.01)"
2025/07/11/14:08:37.499617,117,1752242917,499170957,imu_link,0.0024051706425737805,-0.010809788596882024,-0.9731671282632373,0.22983277419148626,"(0.001, 0.0, 0.0, 0.0, 0.001, 0.0, 0.0, 0.0, 0.001)",0.0,0.0,0.0,"(1e-05, 0.0, 0.0, 0.0, 1e-05, 0.0, 0.0, 0.0, 1e-05)",0.0,0.2009765625,9.814355468750001,"(0.01, 0.0, 0.0, 0.0, 0.01, 0.0, 0.0, 0.0, 0.01)"
2025/07/11/14:08:37.550256,118,1752242917,549801347,imu_link,0.0024051706425737805,-0.010809788596882024,-0.9731671282632373,0.22983277419148626,"(0.001, 0.0, 0.0, 0.0, 0.001, 0.0, 0.0, 0.0, 0.001)",0.0,0.0,0.0,"(1e-05, 0.0, 0.0, 0.0, 1e-05, 0.0, 0.0, 0.0, 1e-05)",0.0,0.2009765625,9.8095703125,"(0.01, 0.0, 0.0, 0.0, 0.01, 0.0, 0.0, 0.0, 0.01)"
2025/07/11/14:08:37.570991,119,1752242917,570460173,imu_link,0.0024051706425737805,-0.010809788596882024,-0.9731671282632373,0.22983277419148626,"(0.001, 0.0, 0.0, 0.0, 0.001, 0.0, 0.0, 0.0, 0.001)",0.0,0.0,0.0,"(1e-05, 0.0, 0.0, 0.0, 1e-05, 0.0, 0.0, 0.0, 1e-05)",0.0,0.2009765625,9.8095703125,"(0.01, 0.0, 0.0, 0.0, 0.01, 0.0, 0.0, 0.0, 0.01)"
2025/07/11/14:08:37.600212,120,1752242917,599768109,imu_link,0.0024051706425737805,-0.010809788596882024,-0.9731671282632373,0.22983277419148626,"(0.001, 0.0, 0.0, 0.0, 0.001, 0.0, 0.0, 0.0, 0.001)",0.0,0.0,0.0,"(1e-05, 0.0, 0.0, 0.0, 1e-05, 0.0, 0.0, 0.0, 1e-05)",0.0,0.20576171875000002,9.814355468750001,"(0.01, 0.0, 0.0, 0.0, 0.01, 0.0, 0.0, 0.0, 0.01)"
2025/07/11/14:08:37.650725,121,1752242917,650258989,imu_link,0.0024051706425737805,-0.010809788596882024,-0.9731671282632373,0.22983277419148626,"(0.001, 0.0, 0.0, 0.0, 0.001, 0.0, 0.0, 0.0, 0.001)",0.0,0.0,0.0,"(1e-05, 0.0, 0.0, 0.0, 1e-05, 0.0, 0.0, 0.0, 1e-05)",0.0,0.2009765625,9.8095703125,"(0.01, 0.0, 0.0, 0.0, 0.01, 0.0, 0.0, 0.0, 0.01)"
2025/07/11/14:08:37.670710,122,1752242917,670227248,imu_link,0.0024051706425737805,-0.010809788596882024,-0.9731671282632373,0.22983277419148626,"(0.001, 0.0, 0.0, 0.0, 0.001, 0.0, 0.0, 0.0, 0.001)",0.0,0.0,0.0,"(1e-05, 0.0, 0.0, 0.0, 1e-05, 0.0, 0.0, 0.0, 1e-05)",0.0,0.2009765625,9.8095703125,"(0.01, 0.0, 0.0, 0.0, 0.01, 0.0, 0.0, 0.0, 0.01)"
2025/07/11/14:08:37.700826,123,1752242917,700389495,imu_link,0.0024051706425737805,-0.010809788596882024,-0.9731671282632373,0.22983277419148626,"(0.001, 0.0, 0.0, 0.0, 0.001, 0.0, 0.0, 0.0, 0.001)",0.0,0.0,0.0,"(1e-05, 0.0, 0.0, 0.0, 1e-05, 0.0, 0.0, 0.0, 1e-05)",0.00478515625,0.2009765625,9.8095703125,"(0.01, 0.0, 0.0, 0.0, 0.01, 0.0, 0.0, 0.0, 0.01)"
2025/07/11/14:08:37.751158,124,1752242917,750760406,imu_link,0.0024051706425737805,-0.010809788596882024,-0.9731671282632373,0.22983277419148626,"(0.001, 0.0, 0.0, 0.0, 0.001, 0.0, 0.0, 0.0, 0.001)",0.0,0.0,0.0,"(1e-05, 0.0, 0.0, 0.0, 1e-05, 0.0, 0.0, 0.0, 1e-05)",0.0,0.20576171875000002,9.8095703125,"(0.01, 0.0, 0.0, 0.0, 0.01, 0.0, 0.0, 0.0, 0.01)"
2025/07/11/14:08:37.770932,125,1752242917,770435164,imu_link,0.0024051706425737805,-0.010809788596882024,-0.9731671282632373,0.22983277419148626,"(0.001, 0.0, 0.0, 0.0, 0.001, 0.0, 0.0, 0.0, 0.001)",0.0,0.0,0.0,"(1e-05, 0.0, 0.0, 0.0, 1e-05, 0.0, 0.0, 0.0, 1e-05)",0.0,0.20576171875000002,9.8095703125,"(0.01, 0.0, 0.0, 0.0, 0.01, 0.0, 0.0, 0.0, 0.01)"
2025/07/11/14:08:37.801334,126,1752242917,800876161,imu_link,0.0024051706425737805,-0.010809788596882024,-0.9731671282632373,0.22983277419148626,"(0.001, 0.0, 0.0, 0.0, 0.001, 0.0, 0.0, 0.0, 0.001)",0.0,0.0,0.0,"(1e-05, 0.0, 0.0, 0.0, 1e-05, 0.0, 0.0, 0.0, 1e-05)",0.0,0.2009765625,9.8095703125,"(0.01, 0.0, 0.0, 0.0, 0.01, 0.0, 0.0, 0.0, 0.01)"
2025/07/11/14:08:37.851792,127,1752242917,851338054,imu_link,0.0024051706425737805,-0.010809788596882024,-0.9731671282632373,0.22983277419148626,"(0.001, 0.0, 0.0, 0.0, 0.001, 0.0, 0.0, 0.0, 0.001)",0.0,0.0,0.0,"(1e-05, 0.0, 0.0, 0.0, 1e-05, 0.0, 0.0, 0.0, 1e-05)",0.0,0.20576171875000002,9.8095703125,"(0.01, 0.0, 0.0, 0.0, 0.01, 0.0, 0.0, 0.0, 0.01)"
2025/07/11/14:08:37.871007,128,1752242917,870462537,imu_link,0.0024051706425737805,-0.010809788596882024,-0.9731671282632373,0.22983277419148626,"(0.001, 0.0, 0.0, 0.0, 0.001, 0.0, 0.0, 0.0, 0.001)",0.0,0.0,0.0,"(1e-05, 0.0, 0.0, 0.0, 1e-05, 0.0, 0.0, 0.0, 1e-05)",0.0,0.20576171875000002,9.8095703125,"(0.01, 0.0, 0.0, 0.0, 0.01, 0.0, 0.0, 0.0, 0.01)"
2025/07/11/14:08:37.902005,129,1752242917,901578205,imu_link,0.0024051706425737805,-0.010809788596882024,-0.9731671282632373,0.22983277419148626,"(0.001, 0.0, 0.0, 0.0, 0.001, 0.0, 0.0, 0.0, 0.001)",0.0,0.0,0.0,"(1e-05, 0.0, 0.0, 0.0, 1e-05, 0.0, 0.0, 0.0, 1e-05)",0.0,0.2009765625,9.8095703125,"(0.01, 0.0, 0.0, 0.0, 0.01, 0.0, 0.0, 0.0, 0.01)"
2025/07/11/14:08:37.952337,130,1752242917,951871244,imu_link,0.0024051706425737805,-0.010809788596882024,-0.9731671282632373,0.22983277419148626,"(0.001, 0.0, 0.0, 0.0, 0.001, 0.0, 0.0, 0.0, 0.001)",0.0,0.0,0.0,"(1e-05, 0.0, 0.0, 0.0, 1e-05, 0.0, 0.0, 0.0, 1e-05)",0.0,0.2009765625,9.8095703125,"(0.01, 0.0, 0.0, 0.0, 0.01, 0.0, 0.0, 0.0, 0.01)"
2025/07/11/14:08:37.971032,131,1752242917,970454182,imu_link,0.0024051706425737805,-0.010809788596882024,-0.9731671282632373,0.22983277419148626,"(0.001, 0.0, 0.0, 0.0, 0.001, 0.0, 0.0, 0.0, 0.001)",0.0,0.0,0.0,"(1e-05, 0.0, 0.0, 0.0, 1e-05, 0.0, 0.0, 0.0, 1e-05)",0.0,0.2009765625,9.8095703125,"(0.01, 0.0, 0.0, 0.0, 0.01, 0.0, 0.0, 0.0, 0.01)"
2025/07/11/14:08:38.002426,132,1752242918,1982829,imu_link,0.0024051706425737805,-0.010809788596882024,-0.9731671282632373,0.22983277419148626,"(0.001, 0.0, 0.0, 0.0, 0.001, 0.0, 0.0, 0.0, 0.001)",0.0,0.0,0.0,"(1e-05, 0.0, 0.0, 0.0, 1e-05, 0.0, 0.0, 0.0, 1e-05)",0.0,0.2009765625,9.8095703125,"(0.01, 0.0, 0.0, 0.0, 0.01, 0.0, 0.0, 0.0, 0.01)"
2025/07/11/14:08:38.052898,133,1752242918,52444487,imu_link,0.0024051706425737805,-0.010809788596882024,-0.9731671282632373,0.22983277419148626,"(0.001, 0.0, 0.0, 0.0, 0.001, 0.0, 0.0, 0.0, 0.001)",0.0,0.0,0.0,"(1e-05, 0.0, 0.0, 0.0, 1e-05, 0.0, 0.0, 0.0, 1e-05)",0.0,0.20576171875000002,9.8095703125,"(0.01, 0.0, 0.0, 0.0, 0.01, 0.0, 0.0, 0.0, 0.01)"
2025/07/11/14:08:38.070949,134,1752242918,70485759,imu_link,0.0024051706425737805,-0.010809788596882024,-0.9731671282632373,0.22983277419148626,"(0.001, 0.0, 0.0, 0.0, 0.001, 0.0, 0.0, 0.0, 0.001)",0.0,0.0,0.0,"(1e-05, 0.0, 0.0, 0.0, 1e-05, 0.0, 0.0, 0.0, 1e-05)",0.0,0.20576171875000002,9.8095703125,"(0.01, 0.0, 0.0, 0.0, 0.01, 0.0, 0.0, 0.0, 0.01)"
2025/07/11/14:08:38.102915,135,1752242918,102447642,imu_link,0.0024051706425737805,-0.010809788596882024,-0.9731671282632373,0.22983277419148626,"(0.001, 0.0, 0.0, 0.0, 0.001, 0.0, 0.0, 0.0, 0.001)",0.0,0.0,0.0,"(1e-05, 0.0, 0.0, 0.0, 1e-05, 0.0, 0.0, 0.0, 1e-05)",0.0,0.2009765625,9.814355468750001,"(0.01, 0.0, 0.0, 0.0, 0.01, 0.0, 0.0, 0.0, 0.01)"
2025/07/11/14:08:38.153129,136,1752242918,152740270,imu_link,0.0024051706425737805,-0.010809788596882024,-0.9731671282632373,0.22983277419148626,"(0.001, 0.0, 0.0, 0.0, 0.001, 0.0, 0.0, 0.0, 0.001)",0.0,0.0,0.0,"(1e-05, 0.0, 0.0, 0.0, 1e-05, 0.0, 0.0, 0.0, 1e-05)",0.0,0.2009765625,9.8095703125,"(0.01, 0.0, 0.0, 0.0, 0.01, 0.0, 0.0, 0.0, 0.01)"
2025/07/11/14:08:38.170799,137,1752242918,170254160,imu_link,0.0024051706425737805,-0.010809788596882024,-0.9731671282632373,0.22983277419148626,"(0.001, 0.0, 0.0, 0.0, 0.001, 0.0, 0.0, 0.0, 0.001)",0.0,0.0,0.0,"(1e-05, 0.0, 0.0, 0.0, 1e-05, 0.0, 0.0, 0.0, 1e-05)",0.0,0.2009765625,9.8095703125,"(0.01, 0.0, 0.0, 0.0, 0.01, 0.0, 0.0, 0.0, 0.01)"
2025/07/11/14:08:38.203367,138,1752242918,202925780,imu_link,0.0024051706425737805,-0.010809788596882024,-0.9731671282632373,0.22983277419148626,"(0.001, 0.0, 0.0, 0.0, 0.001, 0.0, 0.0, 0.0, 0.001)",0.0,0.0,0.0,"(1e-05, 0.0, 0.0, 0.0, 1e-05, 0.0, 0.0, 0.0, 1e-05)",0.0,0.20576171875000002,9.8095703125,"(0.01, 0.0, 0.0, 0.0, 0.01, 0.0, 0.0, 0.0, 0.01)"
2025/07/11/14:08:38.253926,139,1752242918,253481874,imu_link,0.0024051706425737805,-0.010809788596882024,-0.9731671282632373,0.22983277419148626,"(0.001, 0.0, 0.0, 0.0, 0.001, 0.0, 0.0, 0.0, 0.001)",0.0,0.0,0.0,"(1e-05, 0.0, 0.0, 0.0, 1e-05, 0.0, 0.0, 0.0, 1e-05)",0.0,0.2009765625,9.8095703125,"(0.01, 0.0, 0.0, 0.0, 0.01, 0.0, 0.0, 0.0, 0.01)"
2025/07/11/14:08:38.270636,140,1752242918,270230513,imu_link,0.0024051706425737805,-0.010809788596882024,-0.9731671282632373,0.22983277419148626,"(0.001, 0.0, 0.0, 0.0, 0.001, 0.0, 0.0, 0.0, 0.001)",0.0,0.0,0.0,"(1e-05, 0.0, 0.0, 0.0, 1e-05, 0.0, 0.0, 0.0, 1e-05)",0.0,0.2009765625,9.8095703125,"(0.01, 0.0, 0.0, 0.0, 0.01, 0.0, 0.0, 0.0, 0.01)"
2025/07/11/14:08:38.303935,141,1752242918,303484307,imu_link,0.0024051706425737805,-0.010809788596882024,-0.9731671282632373,0.22983277419148626,"(0.001, 0.0, 0.0, 0.0, 0.001, 0.0, 0.0, 0.0, 0.001)",0.0,0.0,0.0,"(1e-05, 0.0, 0.0, 0.0, 1e-05, 0.0, 0.0, 0.0, 1e-05)",0.0,0.2009765625,9.814355468750001,"(0.01, 0.0, 0.0, 0.0, 0.01, 0.0, 0.0, 0.0, 0.01)"
2025/07/11/14:08:38.354395,142,1752242918,353919312,imu_link,0.0024051706425737805,-0.010809788596882024,-0.9731671282632373,0.22983277419148626,"(0.001, 0.0, 0.0, 0.0, 0.001, 0.0, 0.0, 0.0, 0.001)",0.0,0.0,0.0,"(1e-05, 0.0, 0.0, 0.0, 1e-05, 0.0, 0.0, 0.0, 1e-05)",0.0,0.20576171875000002,9.8095703125,"(0.01, 0.0, 0.0, 0.0, 0.01, 0.0, 0.0, 0.0, 0.01)"
2025/07/11/14:08:38.370961,143,1752242918,370457182,imu_link,0.0024051706425737805,-0.010809788596882024,-0.9731671282632373,0.22983277419148626,"(0.001, 0.0, 0.0, 0.0, 0.001, 0.0, 0.0, 0.0, 0.001)",0.0,0.0,0.0,"(1e-05, 0.0, 0.0, 0.0, 1e-05, 0.0, 0.0, 0.0, 1e-05)",0.0,0.20576171875000002,9.8095703125,"(0.01, 0.0, 0.0, 0.0, 0.01, 0.0, 0.0, 0.0, 0.01)"
2025/07/11/14:08:38.404588,144,1752242918,404105404,imu_link,0.0024051706425737805,-0.010809788596882024,-0.9731671282632373,0.22983277419148626,"(0.001, 0.0, 0.0, 0.0, 0.001, 0.0, 0.0, 0.0, 0.001)",0.0,0.0,0.0,"(1e-05, 0.0, 0.0, 0.0, 1e-05, 0.0, 0.0, 0.0, 1e-05)",0.0,0.20576171875000002,9.8095703125,"(0.01, 0.0, 0.0, 0.0, 0.01, 0.0, 0.0, 0.0, 0.01)"
2025/07/11/14:08:38.454861,145,1752242918,454540780,imu_link,0.0024051706425737805,-0.010809788596882024,-0.9731671282632373,0.22983277419148626,"(0.001, 0.0, 0.0, 0.0, 0.001, 0.0, 0.0, 0.0, 0.001)",0.0,0.0,0.0,"(1e-05, 0.0, 0.0, 0.0, 1e-05, 0.0, 0.0, 0.0, 1e-05)",0.0,0.2009765625,9.814355468750001,"(0.01, 0.0, 0.0, 0.0, 0.01, 0.0, 0.0, 0.0, 0.01)"
2025/07/11/14:08:38.470625,146,1752242918,470210900,imu_link,0.0024051706425737805,-0.010809788596882024,-0.9731671282632373,0.22983277419148626,"(0.001, 0.0, 0.0, 0.0, 0.001, 0.0, 0.0, 0.0, 0.001)",0.0,0.0,0.0,"(1e-05, 0.0, 0.0, 0.0, 1e-05, 0.0, 0.0, 0.0, 1e-05)",0.0,0.2009765625,9.814355468750001,"(0.01, 0.0, 0.0, 0.0, 0.01, 0.0, 0.0, 0.0, 0.01)"
2025/07/11/14:08:38.504973,147,1752242918,504504647,imu_link,0.0024051706425737805,-0.010809788596882024,-0.9731671282632373,0.22983277419148626,"(0.001, 0.0, 0.0, 0.0, 0.001, 0.0, 0.0, 0.0, 0.001)",0.0,0.0,0.0,"(1e-05, 0.0, 0.0, 0.0, 1e-05, 0.0, 0.0, 0.0, 1e-05)",0.0,0.2009765625,9.814355468750001,"(0.01, 0.0, 0.0, 0.0, 0.01, 0.0, 0.0, 0.0, 0.01)"
2025/07/11/14:08:38.555043,148,1752242918,554733634,imu_link,0.0024051706425737805,-0.010809788596882024,-0.9731671282632373,0.22983277419148626,"(0.001, 0.0, 0.0, 0.0, 0.001, 0.0, 0.0, 0.0, 0.001)",0.0,0.0,0.0,"(1e-05, 0.0, 0.0, 0.0, 1e-05, 0.0, 0.0, 0.0, 1e-05)",0.0,0.20576171875000002,9.814355468750001,"(0.01, 0.0, 0.0, 0.0, 0.01, 0.0, 0.0, 0.0, 0.01)"
2025/07/11/14:08:38.570650,149,1752242918,570221199,imu_link,0.0024051706425737805,-0.010809788596882024,-0.9731671282632373,0.22983277419148626,"(0.001, 0.0, 0.0, 0.0, 0.001, 0.0, 0.0, 0.0, 0.001)",0.0,0.0,0.0,"(1e-05, 0.0, 0.0, 0.0, 1e-05, 0.0, 0.0, 0.0, 1e-05)",0.0,0.20576171875000002,9.814355468750001,"(0.01, 0.0, 0.0, 0.0, 0.01, 0.0, 0.0, 0.0, 0.01)"
2025/07/11/14:08:38.605464,150,1752242918,605146951,imu_link,0.0024051706425737805,-0.010809788596882024,-0.9731671282632373,0.22983277419148626,"(0.001, 0.0, 0.0, 0.0, 0.001, 0.0, 0.0, 0.0, 0.001)",0.0,0.0,0.0,"(1e-05, 0.0, 0.0, 0.0, 1e-05, 0.0, 0.0, 0.0, 1e-05)",0.0,0.2009765625,9.814355468750001,"(0.01, 0.0, 0.0, 0.0, 0.01, 0.0, 0.0, 0.0, 0.01)"
2025/07/11/14:08:38.655398,151,1752242918,655188591,imu_link,0.0024518212890304197,-0.010798771262614061,-0.9731672558592358,0.22983225890851153,"(0.001, 0.0, 0.0, 0.0, 0.001, 0.0, 0.0, 0.0, 0.001)",0.0,0.0,0.0,"(1e-05, 0.0, 0.0, 0.0, 1e-05, 0.0, 0.0, 0.0, 1e-05)",0.0,0.2009765625,9.8095703125,"(0.01, 0.0, 0.0, 0.0, 0.01, 0.0, 0.0, 0.0, 0.01)"
2025/07/11/14:08:38.670398,152,1752242918,670205569,imu_link,0.0024518212890304197,-0.010798771262614061,-0.9731672558592358,0.22983225890851153,"(0.001, 0.0, 0.0, 0.0, 0.001, 0.0, 0.0, 0.0, 0.001)",0.0,0.0,0.0,"(1e-05, 0.0, 0.0, 0.0, 1e-05, 0.0, 0.0, 0.0, 1e-05)",0.0,0.2009765625,9.8095703125,"(0.01, 0.0, 0.0, 0.0, 0.01, 0.0, 0.0, 0.0, 0.01)"
2025/07/11/14:08:38.705619,153,1752242918,705424684,imu_link,0.0024518212890304197,-0.010798771262614061,-0.9731672558592358,0.22983225890851153,"(0.001, 0.0, 0.0, 0.0, 0.001, 0.0, 0.0, 0.0, 0.001)",0.0,0.0,0.0,"(1e-05, 0.0, 0.0, 0.0, 1e-05, 0.0, 0.0, 0.0, 1e-05)",0.0,0.2009765625,9.8095703125,"(0.01, 0.0, 0.0, 0.0, 0.01, 0.0, 0.0, 0.0, 0.01)"
2025/07/11/14:08:38.756347,154,1752242918,755819690,imu_link,0.002440803840480436,-0.010752120629961217,-0.9731677724006979,0.2298323761771494,"(0.001, 0.0, 0.0, 0.0, 0.001, 0.0, 0.0, 0.0, 0.001)",0.0,0.0,0.0,"(1e-05, 0.0, 0.0, 0.0, 1e-05, 0.0, 0.0, 0.0, 1e-05)",0.0,0.2009765625,9.8095703125,"(0.01, 0.0, 0.0, 0.0, 0.01, 0.0, 0.0, 0.0, 0.01)"
2025/07/11/14:08:38.770637,155,1752242918,770239931,imu_link,0.002440803840480436,-0.010752120629961217,-0.9731677724006979,0.2298323761771494,"(0.001, 0.0, 0.0, 0.0, 0.001, 0.0, 0.0, 0.0, 0.001)",0.0,0.0,0.0,"(1e-05, 0.0, 0.0, 0.0, 1e-05, 0.0, 0.0, 0.0, 1e-05)",0.0,0.2009765625,9.8095703125,"(0.01, 0.0, 0.0, 0.0, 0.01, 0.0, 0.0, 0.0, 0.01)"
2025/07/11/14:08:38.806567,156,1752242918,806144991,imu_link,0.002440803840480436,-0.010752120629961217,-0.9731677724006979,0.2298323761771494,"(0.001, 0.0, 0.0, 0.0, 0.001, 0.0, 0.0, 0.0, 0.001)",0.0,0.0,0.0,"(1e-05, 0.0, 0.0, 0.0, 1e-05, 0.0, 0.0, 0.0, 1e-05)",0.0,0.2009765625,9.8095703125,"(0.01, 0.0, 0.0, 0.0, 0.01, 0.0, 0.0, 0.0, 0.01)"
2025/07/11/14:08:38.856987,157,1752242918,856594077,imu_link,0.002440803840480436,-0.010752120629961217,-0.9731677724006979,0.2298323761771494,"(0.001, 0.0, 0.0, 0.0, 0.001, 0.0, 0.0, 0.0, 0.001)",0.0,0.0,0.0,"(1e-05, 0.0, 0.0, 0.0, 1e-05, 0.0, 0.0, 0.0, 1e-05)",0.0,0.20576171875000002,9.8095703125,"(0.01, 0.0, 0.0, 0.0, 0.01, 0.0, 0.0, 0.0, 0.01)"
2025/07/11/14:08:38.870789,158,1752242918,870409724,imu_link,0.002440803840480436,-0.010752120629961217,-0.9731677724006979,0.2298323761771494,"(0.001, 0.0, 0.0, 0.0, 0.001, 0.0, 0.0, 0.0, 0.001)",0.0,0.0,0.0,"(1e-05, 0.0, 0.0, 0.0, 1e-05, 0.0, 0.0, 0.0, 1e-05)",0.0,0.20576171875000002,9.8095703125,"(0.01, 0.0, 0.0, 0.0, 0.01, 0.0, 0.0, 0.0, 0.01)"
2025/07/11/14:08:38.907120,159,1752242918,906670585,imu_link,0.002440803840480436,-0.010752120629961217,-0.9731677724006979,0.2298323761771494,"(0.001, 0.0, 0.0, 0.0, 0.001, 0.0, 0.0, 0.0, 0.001)",0.0,0.0,0.0,"(1e-05, 0.0, 0.0, 0.0, 1e-05, 0.0, 0.0, 0.0, 1e-05)",0.0,0.20576171875000002,9.814355468750001,"(0.01, 0.0, 0.0, 0.0, 0.01, 0.0, 0.0, 0.0, 0.01)"
2025/07/11/14:08:38.957420,160,1752242918,957095307,imu_link,0.002440803840480436,-0.010752120629961217,-0.9731677724006979,0.2298323761771494,"(0.001, 0.0, 0.0, 0.0, 0.001, 0.0, 0.0, 0.0, 0.001)",0.0,0.0,0.0,"(1e-05, 0.0, 0.0, 0.0, 1e-05, 0.0, 0.0, 0.0, 1e-05)",0.0,0.20576171875000002,9.8095703125,"(0.01, 0.0, 0.0, 0.0, 0.01, 0.0, 0.0, 0.0, 0.01)"
2025/07/11/14:08:38.970655,161,1752242918,970199191,imu_link,0.002440803840480436,-0.010752120629961217,-0.9731677724006979,0.2298323761771494,"(0.001, 0.0, 0.0, 0.0, 0.001, 0.0, 0.0, 0.0, 0.001)",0.0,0.0,0.0,"(1e-05, 0.0, 0.0, 0.0, 1e-05, 0.0, 0.0, 0.0, 1e-05)",0.0,0.20576171875000002,9.8095703125,"(0.01, 0.0, 0.0, 0.0, 0.01, 0.0, 0.0, 0.0, 0.01)"
2025/07/11/14:08:39.007846,162,1752242919,7279082,imu_link,0.002440803840480436,-0.010752120629961217,-0.9731677724006979,0.2298323761771494,"(0.001, 0.0, 0.0, 0.0, 0.001, 0.0, 0.0, 0.0, 0.001)",0.0,0.0,0.0,"(1e-05, 0.0, 0.0, 0.0, 1e-05, 0.0, 0.0, 0.0, 1e-05)",0.0,0.2009765625,9.814355468750001,"(0.01, 0.0, 0.0, 0.0, 0.01, 0.0, 0.0, 0.0, 0.01)"
2025/07/11/14:08:39.057847,163,1752242919,57459692,imu_link,0.002440803840480436,-0.010752120629961217,-0.9731677724006979,0.2298323761771494,"(0.001, 0.0, 0.0, 0.0, 0.001, 0.0, 0.0, 0.0, 0.001)",0.0,0.0,0.0,"(1e-05, 0.0, 0.0, 0.0, 1e-05, 0.0, 0.0, 0.0, 1e-05)",0.0,0.2009765625,9.8095703125,"(0.01, 0.0, 0.0, 0.0, 0.01, 0.0, 0.0, 0.0, 0.01)"
2025/07/11/14:08:39.070698,164,1752242919,70240533,imu_link,0.002440803840480436,-0.010752120629961217,-0.9731677724006979,0.2298323761771494,"(0.001, 0.0, 0.0, 0.0, 0.001, 0.0, 0.0, 0.0, 0.001)",0.0,0.0,0.0,"(1e-05, 0.0, 0.0, 0.0, 1e-05, 0.0, 0.0, 0.0, 1e-05)",0.0,0.2009765625,9.8095703125,"(0.01, 0.0, 0.0, 0.0, 0.01, 0.0, 0.0, 0.0, 0.01)"
2025/07/11/14:08:39.108247,165,1752242919,107853937,imu_link,0.002440803840480436,-0.010752120629961217,-0.9731677724006979,0.2298323761771494,"(0.001, 0.0, 0.0, 0.0, 0.001, 0.0, 0.0, 0.0, 0.001)",0.0,0.0,0.0,"(1e-05, 0.0, 0.0, 0.0, 1e-05, 0.0, 0.0, 0.0, 1e-05)",0.0,0.2009765625,9.8095703125,"(0.01, 0.0, 0.0, 0.0, 0.01, 0.0, 0.0, 0.0, 0.01)"
2025/07/11/14:08:39.158725,166,1752242919,158328350,imu_link,0.002440803840480436,-0.010752120629961217,-0.9731677724006979,0.2298323761771494,"(0.001, 0.0, 0.0, 0.0, 0.001, 0.0, 0.0, 0.0, 0.001)",0.0,0.0,0.0,"(1e-05, 0.0, 0.0, 0.0, 1e-05, 0.0, 0.0, 0.0, 1e-05)",0.0,0.2009765625,9.8095703125,"(0.01, 0.0, 0.0, 0.0, 0.01, 0.0, 0.0, 0.0, 0.01)"
2025/07/11/14:08:39.170846,167,1752242919,170266399,imu_link,0.002440803840480436,-0.010752120629961217,-0.9731677724006979,0.2298323761771494,"(0.001, 0.0, 0.0, 0.0, 0.001, 0.0, 0.0, 0.0, 0.001)",0.0,0.0,0.0,"(1e-05, 0.0, 0.0, 0.0, 1e-05, 0.0, 0.0, 0.0, 1e-05)",0.0,0.2009765625,9.8095703125,"(0.01, 0.0, 0.0, 0.0, 0.01, 0.0, 0.0, 0.0, 0.01)"
2025/07/11/14:08:39.208376,168,1752242919,208158502,imu_link,0.002440803840480436,-0.010752120629961217,-0.9731677724006979,0.2298323761771494,"(0.001, 0.0, 0.0, 0.0, 0.001, 0.0, 0.0, 0.0, 0.001)",0.0,0.0,0.0,"(1e-05, 0.0, 0.0, 0.0, 1e-05, 0.0, 0.0, 0.0, 1e-05)",0.0,0.20576171875000002,9.814355468750001,"(0.01, 0.0, 0.0, 0.0, 0.01, 0.0, 0.0, 0.0, 0.01)"
2025/07/11/14:08:39.258655,169,1752242919,258401701,imu_link,0.002440803840480436,-0.010752120629961217,-0.9731677724006979,0.2298323761771494,"(0.001, 0.0, 0.0, 0.0, 0.001, 0.0, 0.0, 0.0, 0.001)",0.0,0.0,0.0,"(1e-05, 0.0, 0.0, 0.0, 1e-05, 0.0, 0.0, 0.0, 1e-05)",0.0,0.2009765625,9.8095703125,"(0.01, 0.0, 0.0, 0.0, 0.01, 0.0, 0.0, 0.0, 0.01)"
2025/07/11/14:08:39.270695,170,1752242919,270403631,imu_link,0.002440803840480436,-0.010752120629961217,-0.9731677724006979,0.2298323761771494,"(0.001, 0.0, 0.0, 0.0, 0.001, 0.0, 0.0, 0.0, 0.001)",0.0,0.0,0.0,"(1e-05, 0.0, 0.0, 0.0, 1e-05, 0.0, 0.0, 0.0, 1e-05)",0.0,0.2009765625,9.8095703125,"(0.01, 0.0, 0.0, 0.0, 0.01, 0.0, 0.0, 0.0, 0.01)"
2025/07/11/14:08:39.309087,171,1752242919,308793801,imu_link,0.002440803840480436,-0.010752120629961217,-0.9731677724006979,0.2298323761771494,"(0.001, 0.0, 0.0, 0.0, 0.001, 0.0, 0.0, 0.0, 0.001)",0.0,0.0,0.0,"(1e-05, 0.0, 0.0, 0.0, 1e-05, 0.0, 0.0, 0.0, 1e-05)",0.0,0.2009765625,9.8095703125,"(0.01, 0.0, 0.0, 0.0, 0.01, 0.0, 0.0, 0.0, 0.01)"
2025/07/11/14:08:39.359232,172,1752242919,358950318,imu_link,0.002440803840480436,-0.010752120629961217,-0.9731677724006979,0.2298323761771494,"(0.001, 0.0, 0.0, 0.0, 0.001, 0.0, 0.0, 0.0, 0.001)",0.0,0.0,0.0,"(1e-05, 0.0, 0.0, 0.0, 1e-05, 0.0, 0.0, 0.0, 1e-05)",0.0,0.2009765625,9.8095703125,"(0.01, 0.0, 0.0, 0.0, 0.01, 0.0, 0.0, 0.0, 0.01)"
2025/07/11/14:08:39.370378,173,1752242919,370184192,imu_link,0.002440803840480436,-0.010752120629961217,-0.9731677724006979,0.2298323761771494,"(0.001, 0.0, 0.0, 0.0, 0.001, 0.0, 0.0, 0.0, 0.001)",0.0,0.0,0.0,"(1e-05, 0.0, 0.0, 0.0, 1e-05, 0.0, 0.0, 0.0, 1e-05)",0.0,0.2009765625,9.8095703125,"(0.01, 0.0, 0.0, 0.0, 0.01, 0.0, 0.0, 0.0, 0.01)"
2025/07/11/14:08:39.409497,174,1752242919,409236523,imu_link,0.002440803840480436,-0.010752120629961217,-0.9731677724006979,0.2298323761771494,"(0.001, 0.0, 0.0, 0.0, 0.001, 0.0, 0.0, 0.0, 0.001)",0.0,0.0,0.0,"(1e-05, 0.0, 0.0, 0.0, 1e-05, 0.0, 0.0, 0.0, 1e-05)",0.0,0.20576171875000002,9.814355468750001,"(0.01, 0.0, 0.0, 0.0, 0.01, 0.0, 0.0, 0.0, 0.01)"
2025/07/11/14:08:39.459723,175,1752242919,459487379,imu_link,0.002440803840480436,-0.010752120629961217,-0.9731677724006979,0.2298323761771494,"(0.001, 0.0, 0.0, 0.0, 0.001, 0.0, 0.0, 0.0, 0.001)",0.0,0.0,0.0,"(1e-05, 0.0, 0.0, 0.0, 1e-05, 0.0, 0.0, 0.0, 1e-05)",0.0,0.2009765625,9.8095703125,"(0.01, 0.0, 0.0, 0.0, 0.01, 0.0, 0.0, 0.0, 0.01)"
2025/07/11/14:08:39.470937,176,1752242919,470490570,imu_link,0.002440803840480436,-0.010752120629961217,-0.9731677724006979,0.2298323761771494,"(0.001, 0.0, 0.0, 0.0, 0.001, 0.0, 0.0, 0.0, 0.001)",0.0,0.0,0.0,"(1e-05, 0.0, 0.0, 0.0, 1e-05, 0.0, 0.0, 0.0, 1e-05)",0.0,0.2009765625,9.8095703125,"(0.01, 0.0, 0.0, 0.0, 0.01, 0.0, 0.0, 0.0, 0.01)"
2025/07/11/14:08:39.510480,177,1752242919,510054328,imu_link,0.002440803840480436,-0.010752120629961217,-0.9731677724006979,0.2298323761771494,"(0.001, 0.0, 0.0, 0.0, 0.001, 0.0, 0.0, 0.0, 0.001)",0.0,0.0,0.0,"(1e-05, 0.0, 0.0, 0.0, 1e-05, 0.0, 0.0, 0.0, 1e-05)",0.0,0.20576171875000002,9.8095703125,"(0.01, 0.0, 0.0, 0.0, 0.01, 0.0, 0.0, 0.0, 0.01)"
2025/07/11/14:08:39.560608,178,1752242919,560225477,imu_link,0.002440803840480436,-0.010752120629961217,-0.9731677724006979,0.2298323761771494,"(0.001, 0.0, 0.0, 0.0, 0.001, 0.0, 0.0, 0.0, 0.001)",0.0,0.0,0.0,"(1e-05, 0.0, 0.0, 0.0, 1e-05, 0.0, 0.0, 0.0, 1e-05)",0.0,0.2009765625,9.8095703125,"(0.01, 0.0, 0.0, 0.0, 0.01, 0.0, 0.0, 0.0, 0.01)"
2025/07/11/14:08:39.570779,179,1752242919,570421565,imu_link,0.002440803840480436,-0.010752120629961217,-0.9731677724006979,0.2298323761771494,"(0.001, 0.0, 0.0, 0.0, 0.001, 0.0, 0.0, 0.0, 0.001)",0.0,0.0,0.0,"(1e-05, 0.0, 0.0, 0.0, 1e-05, 0.0, 0.0, 0.0, 1e-05)",0.0,0.2009765625,9.8095703125,"(0.01, 0.0, 0.0, 0.0, 0.01, 0.0, 0.0, 0.0, 0.01)"
2025/07/11/14:08:39.610903,180,1752242919,610520923,imu_link,0.002440803840480436,-0.010752120629961217,-0.9731677724006979,0.2298323761771494,"(0.001, 0.0, 0.0, 0.0, 0.001, 0.0, 0.0, 0.0, 0.001)",0.0,0.0,0.0,"(1e-05, 0.0, 0.0, 0.0, 1e-05, 0.0, 0.0, 0.0, 1e-05)",0.0,0.2009765625,9.8095703125,"(0.01, 0.0, 0.0, 0.0, 0.01, 0.0, 0.0, 0.0, 0.01)"
2025/07/11/14:08:39.661233,181,1752242919,660769885,imu_link,0.002440803840480436,-0.010752120629961217,-0.9731677724006979,0.2298323761771494,"(0.001, 0.0, 0.0, 0.0, 0.001, 0.0, 0.0, 0.0, 0.001)",0.0,0.0,0.0,"(1e-05, 0.0, 0.0, 0.0, 1e-05, 0.0, 0.0, 0.0, 1e-05)",0.0,0.2009765625,9.814355468750001,"(0.01, 0.0, 0.0, 0.0, 0.01, 0.0, 0.0, 0.0, 0.01)"
2025/07/11/14:08:39.670915,182,1752242919,670335391,imu_link,0.002440803840480436,-0.010752120629961217,-0.9731677724006979,0.2298323761771494,"(0.001, 0.0, 0.0, 0.0, 0.001, 0.0, 0.0, 0.0, 0.001)",0.0,0.0,0.0,"(1e-05, 0.0, 0.0, 0.0, 1e-05, 0.0, 0.0, 0.0, 1e-05)",0.0,0.2009765625,9.814355468750001,"(0.01, 0.0, 0.0, 0.0, 0.01, 0.0, 0.0, 0.0, 0.01)"
2025/07/11/14:08:39.711477,183,1752242919,711029561,imu_link,0.002440803840480436,-0.010752120629961217,-0.9731677724006979,0.2298323761771494,"(0.001, 0.0, 0.0, 0.0, 0.001, 0.0, 0.0, 0.0, 0.001)",0.0,0.0,0.0,"(1e-05, 0.0, 0.0, 0.0, 1e-05, 0.0, 0.0, 0.0, 1e-05)",0.0,0.2009765625,9.8095703125,"(0.01, 0.0, 0.0, 0.0, 0.01, 0.0, 0.0, 0.0, 0.01)"
2025/07/11/14:08:39.762087,184,1752242919,761586698,imu_link,0.002440803840480436,-0.010752120629961217,-0.9731677724006979,0.2298323761771494,"(0.001, 0.0, 0.0, 0.0, 0.001, 0.0, 0.0, 0.0, 0.001)",0.0,0.0,0.0,"(1e-05, 0.0, 0.0, 0.0, 1e-05, 0.0, 0.0, 0.0, 1e-05)",0.0,0.2009765625,9.8095703125,"(0.01, 0.0, 0.0, 0.0, 0.01, 0.0, 0.0, 0.0, 0.01)"
2025/07/11/14:08:39.770852,185,1752242919,770250069,imu_link,0.002440803840480436,-0.010752120629961217,-0.9731677724006979,0.2298323761771494,"(0.001, 0.0, 0.0, 0.0, 0.001, 0.0, 0.0, 0.0, 0.001)",0.0,0.0,0.0,"(1e-05, 0.0, 0.0, 0.0, 1e-05, 0.0, 0.0, 0.0, 1e-05)",0.0,0.2009765625,9.8095703125,"(0.01, 0.0, 0.0, 0.0, 0.01, 0.0, 0.0, 0.0, 0.01)"
2025/07/11/14:08:39.812057,186,1752242919,811619780,imu_link,0.002440803840480436,-0.010752120629961217,-0.9731677724006979,0.2298323761771494,"(0.001, 0.0, 0.0, 0.0, 0.001, 0.0, 0.0, 0.0, 0.001)",0.0,0.0,0.0,"(1e-05, 0.0, 0.0, 0.0, 1e-05, 0.0, 0.0, 0.0, 1e-05)",0.0,0.20576171875000002,9.814355468750001,"(0.01, 0.0, 0.0, 0.0, 0.01, 0.0, 0.0, 0.0, 0.01)"
2025/07/11/14:08:39.862586,187,1752242919,862083720,imu_link,0.002440803840480436,-0.010752120629961217,-0.9731677724006979,0.2298323761771494,"(0.001, 0.0, 0.0, 0.0, 0.001, 0.0, 0.0, 0.0, 0.001)",0.0,0.0,0.0,"(1e-05, 0.0, 0.0, 0.0, 1e-05, 0.0, 0.0, 0.0, 1e-05)",0.0,0.2009765625,9.814355468750001,"(0.01, 0.0, 0.0, 0.0, 0.01, 0.0, 0.0, 0.0, 0.01)"
2025/07/11/14:08:39.870783,188,1752242919,870246529,imu_link,0.002440803840480436,-0.010752120629961217,-0.9731677724006979,0.2298323761771494,"(0.001, 0.0, 0.0, 0.0, 0.001, 0.0, 0.0, 0.0, 0.001)",0.0,0.0,0.0,"(1e-05, 0.0, 0.0, 0.0, 1e-05, 0.0, 0.0, 0.0, 1e-05)",0.0,0.2009765625,9.814355468750001,"(0.01, 0.0, 0.0, 0.0, 0.01, 0.0, 0.0, 0.0, 0.01)"
2025/07/11/14:08:39.912551,189,1752242919,912134552,imu_link,0.002440803840480436,-0.010752120629961217,-0.9731677724006979,0.2298323761771494,"(0.001, 0.0, 0.0, 0.0, 0.001, 0.0, 0.0, 0.0, 0.001)",0.0,0.0,0.0,"(1e-05, 0.0, 0.0, 0.0, 1e-05, 0.0, 0.0, 0.0, 1e-05)",0.0,0.20576171875000002,9.8095703125,"(0.01, 0.0, 0.0, 0.0, 0.01, 0.0, 0.0, 0.0, 0.01)"
2025/07/11/14:08:39.963089,190,1752242919,962637318,imu_link,0.002440803840480436,-0.010752120629961217,-0.9731677724006979,0.2298323761771494,"(0.001, 0.0, 0.0, 0.0, 0.001, 0.0, 0.0, 0.0, 0.001)",0.0,0.0,0.0,"(1e-05, 0.0, 0.0, 0.0, 1e-05, 0.0, 0.0, 0.0, 1e-05)",0.00478515625,0.19140625,9.814355468750001,"(0.01, 0.0, 0.0, 0.0, 0.01, 0.0, 0.0, 0.0, 0.01)"
2025/07/11/14:08:39.970800,191,1752242919,970244733,imu_link,0.002440803840480436,-0.010752120629961217,-0.9731677724006979,0.2298323761771494,"(0.001, 0.0, 0.0, 0.0, 0.001, 0.0, 0.0, 0.0, 0.001)",0.0,0.0,0.0,"(1e-05, 0.0, 0.0, 0.0, 1e-05, 0.0, 0.0, 0.0, 1e-05)",0.00478515625,0.19140625,9.814355468750001,"(0.01, 0.0, 0.0, 0.0, 0.01, 0.0, 0.0, 0.0, 0.01)"
2025/07/11/14:08:40.013209,192,1752242920,12673500,imu_link,0.002440803840480436,-0.010752120629961217,-0.9731677724006979,0.2298323761771494,"(0.001, 0.0, 0.0, 0.0, 0.001, 0.0, 0.0, 0.0, 0.001)",0.0,0.0,0.0,"(1e-05, 0.0, 0.0, 0.0, 1e-05, 0.0, 0.0, 0.0, 1e-05)",0.014355468750000001,0.19619140625,9.8095703125,"(0.01, 0.0, 0.0, 0.0, 0.01, 0.0, 0.0, 0.0, 0.01)"
2025/07/11/14:08:40.063548,193,1752242920,63050828,imu_link,0.002440803840480436,-0.010752120629961217,-0.9731677724006979,0.2298323761771494,"(0.001, 0.0, 0.0, 0.0, 0.001, 0.0, 0.0, 0.0, 0.001)",0.0,0.0,0.0,"(1e-05, 0.0, 0.0, 0.0, 1e-05, 0.0, 0.0, 0.0, 1e-05)",1.8614257812500001,-1.20107421875,9.15400390625,"(0.01, 0.0, 0.0, 0.0, 0.01, 0.0, 0.0, 0.0, 0.01)"
2025/07/11/14:08:40.070928,194,1752242920,70491905,imu_link,0.0024830579865975657,-0.009757417174331097,-0.9735843993673587,0.2281053365040383,"(0.001, 0.0, 0.0, 0.0, 0.001, 0.0, 0.0, 0.0, 0.001)",-0.12783173014322918,0.09587379760742189,-0.25033713819715714,"(1e-05, 0.0, 0.0, 0.0, 1e-05, 0.0, 0.0, 0.0, 1e-05)",1.8614257812500001,-1.20107421875,9.15400390625,"(0.01, 0.0, 0.0, 0.0, 0.01, 0.0, 0.0, 0.0, 0.01)"
2025/07/11/14:08:40.113818,195,1752242920,113333135,imu_link,0.0024830579865975657,-0.009757417174331097,-0.9735843993673587,0.2281053365040383,"(0.001, 0.0, 0.0, 0.0, 0.001, 0.0, 0.0, 0.0, 0.001)",-0.12783173014322918,0.09587379760742189,-0.25033713819715714,"(1e-05, 0.0, 0.0, 0.0, 1e-05, 0.0, 0.0, 0.0, 1e-05)",-0.02392578125,-0.87568359375,10.54169921875,"(0.01, 0.0, 0.0, 0.0, 0.01, 0.0, 0.0, 0.0, 0.01)"
2025/07/11/14:08:40.163991,196,1752242920,163548344,imu_link,0.0023503624049547468,-0.007381735760627487,-0.9755372597228357,0.2196976118809359,"(0.001, 0.0, 0.0, 0.0, 0.001, 0.0, 0.0, 0.0, 0.001)",0.011717908596462675,0.012783173014322916,-0.35153725789388024,"(1e-05, 0.0, 0.0, 0.0, 1e-05, 0.0, 0.0, 0.0, 1e-05)",-0.6220703125,-0.5550781250000001,9.479394531250001,"(0.01, 0.0, 0.0, 0.0, 0.01, 0.0, 0.0, 0.0, 0.01)"
2025/07/11/14:08:40.170837,197,1752242920,170276166,imu_link,0.002391177897252264,-0.0067917287567374985,-0.9776533754787122,0.21010005260313205,"(0.001, 0.0, 0.0, 0.0, 0.001, 0.0, 0.0, 0.0, 0.001)",0.012783173014322916,0.01384843743218316,-0.3888215125189888,"(1e-05, 0.0, 0.0, 0.0, 1e-05, 0.0, 0.0, 0.0, 1e-05)",-0.6220703125,-0.5550781250000001,9.479394531250001,"(0.01, 0.0, 0.0, 0.0, 0.01, 0.0, 0.0, 0.0, 0.01)"
2025/07/11/14:08:40.214343,198,1752242920,213876984,imu_link,0.002391177897252264,-0.0067917287567374985,-0.9776533754787122,0.21010005260313205,"(0.001, 0.0, 0.0, 0.0, 0.001, 0.0, 0.0, 0.0, 0.001)",0.012783173014322916,0.01384843743218316,-0.3888215125189888,"(1e-05, 0.0, 0.0, 0.0, 1e-05, 0.0, 0.0, 0.0, 1e-05)",-0.019140625,-0.9187500000000001,9.8478515625,"(0.01, 0.0, 0.0, 0.0, 0.01, 0.0, 0.0, 0.0, 0.01)"
2025/07/11/14:08:40.264781,199,1752242920,264338229,imu_link,0.002510210590463054,-0.005307744595623585,-0.9795062439907538,0.20132820138575966,"(0.001, 0.0, 0.0, 0.0, 0.001, 0.0, 0.0, 0.0, 0.001)",-0.02343581719292535,0.029827403700086803,-0.33236249837239584,"(1e-05, 0.0, 0.0, 0.0, 1e-05, 0.0, 0.0, 0.0, 1e-05)",0.09091796875000001,-1.1771484375,10.661328125,"(0.01, 0.0, 0.0, 0.0, 0.01, 0.0, 0.0, 0.0, 0.01)"
2025/07/11/14:08:40.270623,200,1752242920,270249087,imu_link,0.002634910958755873,-0.004709674483749458,-0.9812374291157862,0.19272774557063418,"(0.001, 0.0, 0.0, 0.0, 0.001, 0.0, 0.0, 0.0, 0.001)",0.039414783460828995,-0.06498112948947483,-0.3600593732367621,"(1e-05, 0.0, 0.0, 0.0, 1e-05, 0.0, 0.0, 0.0, 1e-05)",0.09091796875000001,-1.1771484375,10.661328125,"(0.01, 0.0, 0.0, 0.0, 0.01, 0.0, 0.0, 0.0, 0.01)"
2025/07/11/14:08:40.314810,201,1752242920,314386145,imu_link,0.002634910958755873,-0.004709674483749458,-0.9812374291157862,0.19272774557063418,"(0.001, 0.0, 0.0, 0.0, 0.001, 0.0, 0.0, 0.0, 0.001)",0.039414783460828995,-0.06498112948947483,-0.3600593732367621,"(1e-05, 0.0, 0.0, 0.0, 1e-05, 0.0, 0.0, 0.0, 1e-05)",0.2009765625,-0.11962890625000001,9.54638671875,"(0.01, 0.0, 0.0, 0.0, 0.01, 0.0, 0.0, 0.0, 0.01)"
2025/07/11/14:08:40.365357,202,1752242920,364922538,imu_link,0.002219669425953804,-0.0053390499176156426,-0.9828790658098886,0.1841610968861165,"(0.001, 0.0, 0.0, 0.0, 0.001, 0.0, 0.0, 0.0, 0.001)",0.0617853362358941,0.0,-0.3430151425509983,"(1e-05, 0.0, 0.0, 0.0, 1e-05, 0.0, 0.0, 0.0, 1e-05)",0.11962890625000001,0.6029296875000001,9.21142578125,"(0.01, 0.0, 0.0, 0.0, 0.01, 0.0, 0.0, 0.0, 0.01)"
2025/07/11/14:08:40.370837,203,1752242920,370249348,imu_link,0.0021127706410143127,-0.005270728706008971,-0.9843223672805946,0.17628735884984084,"(0.001, 0.0, 0.0, 0.0, 0.001, 0.0, 0.0, 0.0, 0.001)",0.002130528835720486,0.009587379760742188,-0.30999194559733073,"(1e-05, 0.0, 0.0, 0.0, 1e-05, 0.0, 0.0, 0.0, 1e-05)",0.11962890625000001,0.6029296875000001,9.21142578125,"(0.01, 0.0, 0.0, 0.0, 0.01, 0.0, 0.0, 0.0, 0.01)"
2025/07/11/14:08:40.415303,204,1752242920,414917637,imu_link,0.0021127706410143127,-0.005270728706008971,-0.9843223672805946,0.17628735884984084,"(0.001, 0.0, 0.0, 0.0, 0.001, 0.0, 0.0, 0.0, 0.001)",0.002130528835720486,0.009587379760742188,-0.30999194559733073,"(1e-05, 0.0, 0.0, 0.0, 1e-05, 0.0, 0.0, 0.0, 1e-05)",-0.1435546875,0.27275390625,9.723437500000001,"(0.01, 0.0, 0.0, 0.0, 0.01, 0.0, 0.0, 0.0, 0.01)"
2025/07/11/14:08:40.465871,205,1752242920,465441711,imu_link,0.002628719415769795,-0.003974364874625183,-0.9855370811406965,0.1693929040861886,"(0.001, 0.0, 0.0, 0.0, 0.001, 0.0, 0.0, 0.0, 0.001)",-0.02663161044650608,0.04580636996799045,-0.2844255995686849,"(1e-05, 0.0, 0.0, 0.0, 1e-05, 0.0, 0.0, 0.0, 1e-05)",-0.12919921875,0.11484375000000001,9.9052734375,"(0.01, 0.0, 0.0, 0.0, 0.01, 0.0, 0.0, 0.0, 0.01)"
2025/07/11/14:08:40.470850,206,1752242920,470225947,imu_link,0.003281337782172727,-0.0031023427032612024,-0.9866452775046008,0.1628210817737685,"(0.001, 0.0, 0.0, 0.0, 0.001, 0.0, 0.0, 0.0, 0.001)",-0.005326322089301215,0.039414783460828995,-0.2812298063151042,"(1e-05, 0.0, 0.0, 0.0, 1e-05, 0.0, 0.0, 0.0, 1e-05)",-0.12919921875,0.11484375000000001,9.9052734375,"(0.01, 0.0, 0.0, 0.0, 0.01, 0.0, 0.0, 0.0, 0.01)"
2025/07/11/14:08:40.515778,207,1752242920,515379644,imu_link,0.003281337782172727,-0.0031023427032612024,-0.9866452775046008,0.1628210817737685,"(0.001, 0.0, 0.0, 0.0, 0.001, 0.0, 0.0, 0.0, 0.001)",-0.005326322089301215,0.039414783460828995,-0.2812298063151042,"(1e-05, 0.0, 0.0, 0.0, 1e-05, 0.0, 0.0, 0.0, 1e-05)",-0.10048828125,0.0765625,9.8095703125,"(0.01, 0.0, 0.0, 0.0, 0.01, 0.0, 0.0, 0.0, 0.01)"
2025/07/11/14:08:40.566152,208,1752242920,565717745,imu_link,0.003820700685683852,-0.0029876335427175315,-0.9877369731406375,0.156051748413968,"(0.001, 0.0, 0.0, 0.0, 0.001, 0.0, 0.0, 0.0, 0.001)",0.004261057671440972,0.014913701850043402,-0.29933930141872833,"(1e-05, 0.0, 0.0, 0.0, 1e-05, 0.0, 0.0, 0.0, 1e-05)",-0.03828125,0.16748046875,9.68515625,"(0.01, 0.0, 0.0, 0.0, 0.01, 0.0, 0.0, 0.0, 0.01)"
2025/07/11/14:08:40.570471,209,1752242920,570217649,imu_link,0.004083385443017182,-0.0029723780129250962,-0.9888398333791426,0.14889685978885342,"(0.001, 0.0, 0.0, 0.0, 0.001, 0.0, 0.0, 0.0, 0.001)",0.002130528835720486,0.012783173014322916,-0.3174487965223524,"(1e-05, 0.0, 0.0, 0.0, 1e-05, 0.0, 0.0, 0.0, 1e-05)",-0.03828125,0.16748046875,9.68515625,"(0.01, 0.0, 0.0, 0.0, 0.01, 0.0, 0.0, 0.0, 0.01)"
2025/07/11/14:08:40.616513,210,1752242920,615945702,imu_link,0.004083385443017182,-0.0029723780129250962,-0.9888398333791426,0.14889685978885342,"(0.001, 0.0, 0.0, 0.0, 0.001, 0.0, 0.0, 0.0, 0.001)",0.002130528835720486,0.012783173014322916,-0.3174487965223524,"(1e-05, 0.0, 0.0, 0.0, 1e-05, 0.0, 0.0, 0.0, 1e-05)",0.23447265625000002,-0.2966796875,9.938769531250001,"(0.01, 0.0, 0.0, 0.0, 0.01, 0.0, 0.0, 0.0, 0.01)"
2025/07/11/14:08:40.666920,211,1752242920,666278672,imu_link,0.004562018166408486,-0.0027869361689259347,-0.9899581950879763,0.1412593110389397,"(0.001, 0.0, 0.0, 0.0, 0.001, 0.0, 0.0, 0.0, 0.001)",-0.014913701850043402,0.014913701850043402,-0.3408846137152778,"(1e-05, 0.0, 0.0, 0.0, 1e-05, 0.0, 0.0, 0.0, 1e-05)",-0.00478515625,-0.16269531250000002,10.11103515625,"(0.01, 0.0, 0.0, 0.0, 0.01, 0.0, 0.0, 0.0, 0.01)"
2025/07/11/14:08:40.670485,212,1752242920,670220366,imu_link,0.00486192704252143,-0.0030716914063587857,-0.9911000629563033,0.13299470510268027,"(0.001, 0.0, 0.0, 0.0, 0.001, 0.0, 0.0, 0.0, 0.001)",0.017044230685763887,-0.02769687486436632,-0.358994108818902,"(1e-05, 0.0, 0.0, 0.0, 1e-05, 0.0, 0.0, 0.0, 1e-05)",-0.00478515625,-0.16269531250000002,10.11103515625,"(0.01, 0.0, 0.0, 0.0, 0.01, 0.0, 0.0, 0.0, 0.01)"
2025/07/11/14:08:40.717178,213,1752242920,716595345,imu_link,0.00486192704252143,-0.0030716914063587857,-0.9911000629563033,0.13299470510268027,"(0.001, 0.0, 0.0, 0.0, 0.001, 0.0, 0.0, 0.0, 0.001)",0.017044230685763887,-0.02769687486436632,-0.358994108818902,"(1e-05, 0.0, 0.0, 0.0, 1e-05, 0.0, 0.0, 0.0, 1e-05)",-0.11962890625000001,0.248828125,9.82392578125,"(0.01, 0.0, 0.0, 0.0, 0.01, 0.0, 0.0, 0.0, 0.01)"
2025/07/11/14:08:40.767411,214,1752242920,766768831,imu_link,0.004930311691528105,-0.0038750161552754533,-0.9922199627345052,0.12433914036842082,"(0.001, 0.0, 0.0, 0.0, 0.001, 0.0, 0.0, 0.0, 0.001)",0.017044230685763887,0.01384843743218316,-0.3760383395046658,"(1e-05, 0.0, 0.0, 0.0, 1e-05, 0.0, 0.0, 0.0, 1e-05)",-0.3349609375,0.32060546875,9.694726562500001,"(0.01, 0.0, 0.0, 0.0, 0.01, 0.0, 0.0, 0.0, 0.01)"
2025/07/11/14:08:40.770924,215,1752242920,770513067,imu_link,0.0053104985066426205,-0.004159189760377172,-0.9932642751621527,0.11567445453837928,"(0.001, 0.0, 0.0, 0.0, 0.001, 0.0, 0.0, 0.0, 0.001)",0.017044230685763887,0.02876213928222656,-0.3707120174153646,"(1e-05, 0.0, 0.0, 0.0, 1e-05, 0.0, 0.0, 0.0, 1e-05)",-0.3349609375,0.32060546875,9.694726562500001,"(0.01, 0.0, 0.0, 0.0, 0.01, 0.0, 0.0, 0.0, 0.01)"
2025/07/11/14:08:40.817770,216,1752242920,817162717,imu_link,0.0053104985066426205,-0.004159189760377172,-0.9932642751621527,0.11567445453837928,"(0.001, 0.0, 0.0, 0.0, 0.001, 0.0, 0.0, 0.0, 0.001)",0.017044230685763887,0.02876213928222656,-0.3707120174153646,"(1e-05, 0.0, 0.0, 0.0, 1e-05, 0.0, 0.0, 0.0, 1e-05)",-0.033496093750000004,0.17705078125,9.8095703125,"(0.01, 0.0, 0.0, 0.0, 0.01, 0.0, 0.0, 0.0, 0.01)"
2025/07/11/14:08:40.867940,217,1752242920,867388067,imu_link,0.00567129967961415,-0.004306474958822604,-0.9942179504473405,0.10714456421892062,"(0.001, 0.0, 0.0, 0.0, 0.001, 0.0, 0.0, 0.0, 0.001)",-0.007456850925021701,0.008522115342881944,-0.3664509597439236,"(1e-05, 0.0, 0.0, 0.0, 1e-05, 0.0, 0.0, 0.0, 1e-05)",0.00478515625,-0.1244140625,9.96748046875,"(0.01, 0.0, 0.0, 0.0, 0.01, 0.0, 0.0, 0.0, 0.01)"
2025/07/11/14:08:40.870539,218,1752242920,870299554,imu_link,0.006650053860421604,-0.004398764157664022,-0.9950948866387275,0.09860321618992458,"(0.001, 0.0, 0.0, 0.0, 0.001, 0.0, 0.0, 0.0, 0.001)",-0.011717908596462675,0.02343581719292535,-0.358994108818902,"(1e-05, 0.0, 0.0, 0.0, 1e-05, 0.0, 0.0, 0.0, 1e-05)",0.00478515625,-0.1244140625,9.96748046875,"(0.01, 0.0, 0.0, 0.0, 0.01, 0.0, 0.0, 0.0, 0.01)"
2025/07/11/14:08:40.918279,219,1752242920,917667308,imu_link,0.006650053860421604,-0.004398764157664022,-0.9950948866387275,0.09860321618992458,"(0.001, 0.0, 0.0, 0.0, 0.001, 0.0, 0.0, 0.0, 0.001)",-0.011717908596462675,0.02343581719292535,-0.358994108818902,"(1e-05, 0.0, 0.0, 0.0, 1e-05, 0.0, 0.0, 0.0, 1e-05)",0.26796875000000003,0.33017578125,9.933984375000001,"(0.01, 0.0, 0.0, 0.0, 0.01, 0.0, 0.0, 0.0, 0.01)"
2025/07/11/14:08:40.968280,220,1752242920,967877435,imu_link,0.007013337841997444,-0.00466316624506521,-0.995944034739914,0.08957983946662196,"(0.001, 0.0, 0.0, 0.0, 0.001, 0.0, 0.0, 0.0, 0.001)",0.011717908596462675,0.002130528835720486,-0.41332259412977435,"(1e-05, 0.0, 0.0, 0.0, 1e-05, 0.0, 0.0, 0.0, 1e-05)",-0.71298828125,0.85654296875,9.512890625,"(0.01, 0.0, 0.0, 0.0, 0.01, 0.0, 0.0, 0.0, 0.01)"
2025/07/11/14:08:40.970486,221,1752242920,970219366,imu_link,0.007860204975579264,-0.005095251904066732,-0.9967913823485512,0.07949336866330435,"(0.001, 0.0, 0.0, 0.0, 0.001, 0.0, 0.0, 0.0, 0.001)",-0.003195793253580729,0.035153725789388024,-0.42077944505479603,"(1e-05, 0.0, 0.0, 0.0, 1e-05, 0.0, 0.0, 0.0, 1e-05)",-0.71298828125,0.85654296875,9.512890625,"(0.01, 0.0, 0.0, 0.0, 0.01, 0.0, 0.0, 0.0, 0.01)"
2025/07/11/14:08:41.018855,222,1752242921,18260262,imu_link,0.007860204975579264,-0.005095251904066732,-0.9967913823485512,0.07949336866330435,"(0.001, 0.0, 0.0, 0.0, 0.001, 0.0, 0.0, 0.0, 0.001)",-0.003195793253580729,0.035153725789388024,-0.42077944505479603,"(1e-05, 0.0, 0.0, 0.0, 1e-05, 0.0, 0.0, 0.0, 1e-05)",-0.64599609375,0.7512695312500001,9.627734375000001,"(0.01, 0.0, 0.0, 0.0, 0.01, 0.0, 0.0, 0.0, 0.01)"
2025/07/11/14:08:41.068727,223,1752242921,68360646,imu_link,0.00799124425139805,-0.005015029769514412,-0.997520452178188,0.06974193127487083,"(0.001, 0.0, 0.0, 0.0, 0.001, 0.0, 0.0, 0.0, 0.001)",-0.002130528835720486,0.03834951904296875,-0.4218447094726563,"(1e-05, 0.0, 0.0, 0.0, 1e-05, 0.0, 0.0, 0.0, 1e-05)",-0.47373046875,0.68427734375,9.68515625,"(0.01, 0.0, 0.0, 0.0, 0.01, 0.0, 0.0, 0.0, 0.01)"
2025/07/11/14:08:41.070526,224,1752242921,70262588,imu_link,0.008566965209410353,-0.00510293922152615,-0.9981469129545805,0.060027554320022825,"(0.001, 0.0, 0.0, 0.0, 0.001, 0.0, 0.0, 0.0, 0.001)",0.014913701850043402,0.05965480740017361,-0.4378236757405599,"(1e-05, 0.0, 0.0, 0.0, 1e-05, 0.0, 0.0, 0.0, 1e-05)",-0.47373046875,0.68427734375,9.68515625,"(0.01, 0.0, 0.0, 0.0, 0.01, 0.0, 0.0, 0.0, 0.01)"
2025/07/11/14:08:41.119081,225,1752242921,118647716,imu_link,0.008566965209410353,-0.00510293922152615,-0.9981469129545805,0.060027554320022825,"(0.001, 0.0, 0.0, 0.0, 0.001, 0.0, 0.0, 0.0, 0.001)",0.014913701850043402,0.05965480740017361,-0.4378236757405599,"(1e-05, 0.0, 0.0, 0.0, 1e-05, 0.0, 0.0, 0.0, 1e-05)",0.42587890625,-0.06699218750000001,9.91962890625,"(0.01, 0.0, 0.0, 0.0, 0.01, 0.0, 0.0, 0.0, 0.01)"
2025/07/11/14:08:41.169394,226,1752242921,168949107,imu_link,0.008844937435643054,-0.005129333692351601,-0.9987267136958254,0.04940048955191261,"(0.001, 0.0, 0.0, 0.0, 0.001, 0.0, 0.0, 0.0, 0.001)",-0.007456850925021701,-0.015978966267903648,-0.46232475735134554,"(1e-05, 0.0, 0.0, 0.0, 1e-05, 0.0, 0.0, 0.0, 1e-05)",0.40673828125000006,-0.00478515625,9.91962890625,"(0.01, 0.0, 0.0, 0.0, 0.01, 0.0, 0.0, 0.0, 0.01)"
2025/07/11/14:08:41.170497,227,1752242921,170224799,imu_link,0.009327236968374496,-0.005644044711259701,-0.9992311162201148,0.03766063976270717,"(0.001, 0.0, 0.0, 0.0, 0.001, 0.0, 0.0, 0.0, 0.001)",0.015978966267903648,0.007456850925021701,-0.5060005984836154,"(1e-05, 0.0, 0.0, 0.0, 1e-05, 0.0, 0.0, 0.0, 1e-05)",0.40673828125000006,-0.00478515625,9.91962890625,"(0.01, 0.0, 0.0, 0.0, 0.01, 0.0, 0.0, 0.0, 0.01)"
2025/07/11/14:08:41.219574,228,1752242921,219200317,imu_link,0.009327236968374496,-0.005644044711259701,-0.9992311162201148,0.03766063976270717,"(0.001, 0.0, 0.0, 0.0, 0.001, 0.0, 0.0, 0.0, 0.001)",0.015978966267903648,0.007456850925021701,-0.5060005984836154,"(1e-05, 0.0, 0.0, 0.0, 1e-05, 0.0, 0.0, 0.0, 1e-05)",0.26318359375,0.3923828125,9.742578125000001,"(0.01, 0.0, 0.0, 0.0, 0.01, 0.0, 0.0, 0.0, 0.01)"
2025/07/11/14:08:41.269834,229,1752242921,269425739,imu_link,0.009696233992532386,-0.006183453918079564,-0.999624750810195,0.024861727849459885,"(0.001, 0.0, 0.0, 0.0, 0.001, 0.0, 0.0, 0.0, 0.001)",-0.001065264417860243,0.03621899020724827,-0.5273058868408204,"(1e-05, 0.0, 0.0, 0.0, 1e-05, 0.0, 0.0, 0.0, 1e-05)",-0.41152343750000003,0.6316406250000001,9.694726562500001,"(0.01, 0.0, 0.0, 0.0, 0.01, 0.0, 0.0, 0.0, 0.01)"
2025/07/11/14:08:41.270476,230,1752242921,270249628,imu_link,0.009696233992532386,-0.006183453918079564,-0.999624750810195,0.024861727849459885,"(0.001, 0.0, 0.0, 0.0, 0.001, 0.0, 0.0, 0.0, 0.001)",0.02769687486436632,0.02769687486436632,-0.5443501175265842,"(1e-05, 0.0, 0.0, 0.0, 1e-05, 0.0, 0.0, 0.0, 1e-05)",-0.41152343750000003,0.6316406250000001,9.694726562500001,"(0.01, 0.0, 0.0, 0.0, 0.01, 0.0, 0.0, 0.0, 0.01)"
2025/07/11/14:08:41.320061,231,1752242921,319687462,imu_link,0.010143439015764468,-0.006642451890302459,-0.9998610964373783,0.011435746974391113,"(0.001, 0.0, 0.0, 0.0, 0.001, 0.0, 0.0, 0.0, 0.001)",0.02769687486436632,0.02769687486436632,-0.5443501175265842,"(1e-05, 0.0, 0.0, 0.0, 1e-05, 0.0, 0.0, 0.0, 1e-05)",-0.40673828125000006,0.33017578125,9.819140625000001,"(0.01, 0.0, 0.0, 0.0, 0.01, 0.0, 0.0, 0.0, 0.01)"
2025/07/11/14:08:41.370328,232,1752242921,369937790,imu_link,-0.010578575878395996,0.006829948737575586,0.9999181269145182,0.002277059592695814,"(0.001, 0.0, 0.0, 0.0, 0.001, 0.0, 0.0, 0.0, 0.001)",0.004261057671440972,0.035153725789388024,-0.5518069684516059,"(1e-05, 0.0, 0.0, 0.0, 1e-05, 0.0, 0.0, 0.0, 1e-05)",-0.27753906250000004,0.153125,9.981835937500001,"(0.01, 0.0, 0.0, 0.0, 0.01, 0.0, 0.0, 0.0, 0.01)"
2025/07/11/14:08:41.370372,233,1752242921,370205334,imu_link,-0.010578575878395996,0.006829948737575586,0.9999181269145182,0.002277059592695814,"(0.001, 0.0, 0.0, 0.0, 0.001, 0.0, 0.0, 0.0, 0.001)",-0.001065264417860243,0.015978966267903648,-0.5507417040337457,"(1e-05, 0.0, 0.0, 0.0, 1e-05, 0.0, 0.0, 0.0, 1e-05)",-0.27753906250000004,0.153125,9.981835937500001,"(0.01, 0.0, 0.0, 0.0, 0.01, 0.0, 0.0, 0.0, 0.01)"
2025/07/11/14:08:41.420629,234,1752242921,420230522,imu_link,-0.010964647128801146,0.006932949076739653,0.9997895546359783,0.01589204742104021,"(0.001, 0.0, 0.0, 0.0, 0.001, 0.0, 0.0, 0.0, 0.001)",-0.001065264417860243,0.015978966267903648,-0.5507417040337457,"(1e-05, 0.0, 0.0, 0.0, 1e-05, 0.0, 0.0, 0.0, 1e-05)",0.29189453125000003,0.10527343750000001,9.723437500000001,"(0.01, 0.0, 0.0, 0.0, 0.01, 0.0, 0.0, 0.0, 0.01)"
2025/07/11/14:08:41.470633,235,1752242921,470230694,imu_link,-0.011243394356437768,0.007289868885908298,0.9994605232275356,0.029985103046559294,"(0.001, 0.0, 0.0, 0.0, 0.001, 0.0, 0.0, 0.0, 0.001)",0.02876213928222656,0.02663161044650608,-0.5667206703016493,"(1e-05, 0.0, 0.0, 0.0, 1e-05, 0.0, 0.0, 0.0, 1e-05)",0.29189453125000003,0.10527343750000001,9.723437500000001,"(0.01, 0.0, 0.0, 0.0, 0.01, 0.0, 0.0, 0.0, 0.01)"
2025/07/11/14:08:41.470666,236,1752242921,470427291,imu_link,-0.011243394356437768,0.007289868885908298,0.9994605232275356,0.029985103046559294,"(0.001, 0.0, 0.0, 0.0, 0.001, 0.0, 0.0, 0.0, 0.001)",0.02876213928222656,0.02663161044650608,-0.5667206703016493,"(1e-05, 0.0, 0.0, 0.0, 1e-05, 0.0, 0.0, 0.0, 1e-05)",0.0765625,0.23925781250000003,9.6564453125,"(0.01, 0.0, 0.0, 0.0, 0.01, 0.0, 0.0, 0.0, 0.01)"
2025/07/11/14:08:41.521194,237,1752242921,520814693,imu_link,-0.011698336170205624,0.007631097873709325,0.9988749697884433,0.045317877335851194,"(0.001, 0.0, 0.0, 0.0, 0.001, 0.0, 0.0, 0.0, 0.001)",0.005326322089301215,0.034088461371527774,-0.6029396605088976,"(1e-05, 0.0, 0.0, 0.0, 1e-05, 0.0, 0.0, 0.0, 1e-05)",-0.27753906250000004,0.5311523437500001,9.675585937500001,"(0.01, 0.0, 0.0, 0.0, 0.01, 0.0, 0.0, 0.0, 0.01)"
2025/07/11/14:08:41.570659,238,1752242921,570233615,imu_link,-0.012489524954107115,0.0076913060320048954,0.9979638197900742,0.062073101807039475,"(0.001, 0.0, 0.0, 0.0, 0.001, 0.0, 0.0, 0.0, 0.001)",0.001065264417860243,0.03728425462510851,-0.6380933862982856,"(1e-05, 0.0, 0.0, 0.0, 1e-05, 0.0, 0.0, 0.0, 1e-05)",-0.27753906250000004,0.5311523437500001,9.675585937500001,"(0.01, 0.0, 0.0, 0.0, 0.01, 0.0, 0.0, 0.0, 0.01)"
2025/07/11/14:08:41.571430,239,1752242921,571069100,imu_link,-0.012489524954107115,0.0076913060320048954,0.9979638197900742,0.062073101807039475,"(0.001, 0.0, 0.0, 0.0, 0.001, 0.0, 0.0, 0.0, 0.001)",0.001065264417860243,0.03728425462510851,-0.6380933862982856,"(1e-05, 0.0, 0.0, 0.0, 1e-05, 0.0, 0.0, 0.0, 1e-05)",-0.23925781250000003,0.3541015625,9.68515625,"(0.01, 0.0, 0.0, 0.0, 0.01, 0.0, 0.0, 0.0, 0.01)"
2025/07/11/14:08:41.621882,240,1752242921,621392329,imu_link,-0.013005612381221315,0.007533063597727346,0.9966892236101523,0.07990430863735555,"(0.001, 0.0, 0.0, 0.0, 0.001, 0.0, 0.0, 0.0, 0.001)",0.02663161044650608,0.07776430250379775,-0.661529203491211,"(1e-05, 0.0, 0.0, 0.0, 1e-05, 0.0, 0.0, 0.0, 1e-05)",-0.27753906250000004,0.15791015625000002,9.91962890625,"(0.01, 0.0, 0.0, 0.0, 0.01, 0.0, 0.0, 0.0, 0.01)"
2025/07/11/14:08:41.670634,241,1752242921,670227465,imu_link,-0.013516738726069956,0.007500336151465263,0.9950290219949309,0.09837829089609743,"(0.001, 0.0, 0.0, 0.0, 0.001, 0.0, 0.0, 0.0, 0.001)",0.006391586507161458,0.051132692057291665,-0.6753776409233941,"(1e-05, 0.0, 0.0, 0.0, 1e-05, 0.0, 0.0, 0.0, 1e-05)",-0.27753906250000004,0.15791015625000002,9.91962890625,"(0.01, 0.0, 0.0, 0.0, 0.01, 0.0, 0.0, 0.0, 0.01)"
2025/07/11/14:08:41.671910,242,1752242921,671564493,imu_link,-0.013516738726069956,0.007500336151465263,0.9950290219949309,0.09837829089609743,"(0.001, 0.0, 0.0, 0.0, 0.001, 0.0, 0.0, 0.0, 0.001)",0.006391586507161458,0.051132692057291665,-0.6753776409233941,"(1e-05, 0.0, 0.0, 0.0, 1e-05, 0.0, 0.0, 0.0, 1e-05)",0.172265625,0.1435546875,9.694726562500001,"(0.01, 0.0, 0.0, 0.0, 0.01, 0.0, 0.0, 0.0, 0.01)"
2025/07/11/14:08:41.722284,243,1752242921,721858148,imu_link,-0.013892197509343538,0.007432209290441574,0.9929668055835034,0.11734007040528639,"(0.001, 0.0, 0.0, 0.0, 0.001, 0.0, 0.0, 0.0, 0.001)",-0.001065264417860243,0.035153725789388024,-0.6775081697591147,"(1e-05, 0.0, 0.0, 0.0, 1e-05, 0.0, 0.0, 0.0, 1e-05)",0.59814453125,0.19619140625,9.76171875,"(0.01, 0.0, 0.0, 0.0, 0.01, 0.0, 0.0, 0.0, 0.01)"
2025/07/11/14:08:41.770641,244,1752242921,770247113,imu_link,-0.014429717158975416,0.0072729106770494205,0.9904040678710735,0.1372540359239964,"(0.001, 0.0, 0.0, 0.0, 0.001, 0.0, 0.0, 0.0, 0.001)",0.003195793253580729,0.04048004787868924,-0.7030745157877605,"(1e-05, 0.0, 0.0, 0.0, 1e-05, 0.0, 0.0, 0.0, 1e-05)",0.59814453125,0.19619140625,9.76171875,"(0.01, 0.0, 0.0, 0.0, 0.01, 0.0, 0.0, 0.0, 0.01)"
2025/07/11/14:08:41.772521,245,1752242921,772092580,imu_link,-0.014429717158975416,0.0072729106770494205,0.9904040678710735,0.1372540359239964,"(0.001, 0.0, 0.0, 0.0, 0.001, 0.0, 0.0, 0.0, 0.001)",0.003195793253580729,0.04048004787868924,-0.7030745157877605,"(1e-05, 0.0, 0.0, 0.0, 1e-05, 0.0, 0.0, 0.0, 1e-05)",0.440234375,0.48330078125000003,9.589453125,"(0.01, 0.0, 0.0, 0.0, 0.01, 0.0, 0.0, 0.0, 0.01)"
2025/07/11/14:08:41.822986,246,1752242921,822602023,imu_link,-0.01541082236482353,0.007131384957681941,0.9872307641131198,0.15838897780859273,"(0.001, 0.0, 0.0, 0.0, 0.001, 0.0, 0.0, 0.0, 0.001)",-0.002130528835720486,0.05006742763943142,-0.7456850925021701,"(1e-05, 0.0, 0.0, 0.0, 1e-05, 0.0, 0.0, 0.0, 1e-05)",0.5790039062500001,0.21533203125000003,9.603808593750001,"(0.01, 0.0, 0.0, 0.0, 0.01, 0.0, 0.0, 0.0, 0.01)"
2025/07/11/14:08:41.870613,247,1752242921,870220498,imu_link,-0.016363097615323854,0.00695834404283509,0.9833216859633364,0.18100357012731688,"(0.001, 0.0, 0.0, 0.0, 0.001, 0.0, 0.0, 0.0, 0.001)",-0.004261057671440972,0.060720071818033856,-0.758468265516493,"(1e-05, 0.0, 0.0, 0.0, 1e-05, 0.0, 0.0, 0.0, 1e-05)",0.5790039062500001,0.21533203125000003,9.603808593750001,"(0.01, 0.0, 0.0, 0.0, 0.01, 0.0, 0.0, 0.0, 0.01)"
2025/07/11/14:08:41.873160,248,1752242921,872744722,imu_link,-0.016363097615323854,0.00695834404283509,0.9833216859633364,0.18100357012731688,"(0.001, 0.0, 0.0, 0.0, 0.001, 0.0, 0.0, 0.0, 0.001)",-0.004261057671440972,0.060720071818033856,-0.758468265516493,"(1e-05, 0.0, 0.0, 0.0, 1e-05, 0.0, 0.0, 0.0, 1e-05)",-0.30146484375000004,0.38759765625000003,10.087109375,"(0.01, 0.0, 0.0, 0.0, 0.01, 0.0, 0.0, 0.0, 0.01)"
2025/07/11/14:08:41.923337,249,1752242921,922933303,imu_link,-0.017436730964429905,0.006777962465294128,0.9786673260065437,0.20459786080332001,"(0.001, 0.0, 0.0, 0.0, 0.001, 0.0, 0.0, 0.0, 0.001)",-0.03089266811794705,0.03302319695366754,-0.7648598520236546,"(1e-05, 0.0, 0.0, 0.0, 1e-05, 0.0, 0.0, 0.0, 1e-05)",-0.033496093750000004,0.5072265625000001,9.651660156250001,"(0.01, 0.0, 0.0, 0.0, 0.01, 0.0, 0.0, 0.0, 0.01)"
2025/07/11/14:08:41.970614,250,1752242921,970215612,imu_link,-0.017777079196521547,0.006489844373383376,0.9733179016515383,0.228679075780659,"(0.001, 0.0, 0.0, 0.0, 0.001, 0.0, 0.0, 0.0, 0.001)",0.018109495103624133,0.04474110555013021,-0.7691209096950955,"(1e-05, 0.0, 0.0, 0.0, 1e-05, 0.0, 0.0, 0.0, 1e-05)",-0.033496093750000004,0.5072265625000001,9.651660156250001,"(0.01, 0.0, 0.0, 0.0, 0.01, 0.0, 0.0, 0.0, 0.01)"
2025/07/11/14:08:41.973686,251,1752242921,973251621,imu_link,-0.017777079196521547,0.006489844373383376,0.9733179016515383,0.228679075780659,"(0.001, 0.0, 0.0, 0.0, 0.001, 0.0, 0.0, 0.0, 0.001)",0.018109495103624133,0.04474110555013021,-0.7691209096950955,"(1e-05, 0.0, 0.0, 0.0, 1e-05, 0.0, 0.0, 0.0, 1e-05)",-0.49287109375000004,0.29189453125000003,9.9435546875,"(0.01, 0.0, 0.0, 0.0, 0.01, 0.0, 0.0, 0.0, 0.01)"
2025/07/11/14:08:42.023844,252,1752242922,23433653,imu_link,-0.018392907684243735,0.006397308092894121,0.9672481311385185,0.25308462656812397,"(0.001, 0.0, 0.0, 0.0, 0.001, 0.0, 0.0, 0.0, 0.001)",-0.02343581719292535,0.014913701850043402,-0.748880885755751,"(1e-05, 0.0, 0.0, 0.0, 1e-05, 0.0, 0.0, 0.0, 1e-05)",-0.095703125,-0.26318359375,10.173242187500001,"(0.01, 0.0, 0.0, 0.0, 0.01, 0.0, 0.0, 0.0, 0.01)"
2025/07/11/14:08:42.070614,253,1752242922,70216048,imu_link,-0.018747252257580442,0.006262267847214474,0.9605448589786415,0.2774218780556107,"(0.001, 0.0, 0.0, 0.0, 0.001, 0.0, 0.0, 0.0, 0.001)",-0.07563377366807725,-0.04580636996799045,-0.7169229532199436,"(1e-05, 0.0, 0.0, 0.0, 1e-05, 0.0, 0.0, 0.0, 1e-05)",-0.095703125,-0.26318359375,10.173242187500001,"(0.01, 0.0, 0.0, 0.0, 0.01, 0.0, 0.0, 0.0, 0.01)"
2025/07/11/14:08:42.074227,254,1752242922,73673739,imu_link,-0.018747252257580442,0.006262267847214474,0.9605448589786415,0.2774218780556107,"(0.001, 0.0, 0.0, 0.0, 0.001, 0.0, 0.0, 0.0, 0.001)",-0.07563377366807725,-0.04580636996799045,-0.7169229532199436,"(1e-05, 0.0, 0.0, 0.0, 1e-05, 0.0, 0.0, 0.0, 1e-05)",0.11962890625000001,-0.34931640625000004,9.9435546875,"(0.01, 0.0, 0.0, 0.0, 0.01, 0.0, 0.0, 0.0, 0.01)"
2025/07/11/14:08:42.124497,255,1752242922,123959477,imu_link,-0.019216898341685967,0.006636817230146536,0.9531636401470627,0.3017710035387422,"(0.001, 0.0, 0.0, 0.0, 0.001, 0.0, 0.0, 0.0, 0.001)",-0.006391586507161458,0.008522115342881944,-0.7297061262342665,"(1e-05, 0.0, 0.0, 0.0, 1e-05, 0.0, 0.0, 0.0, 1e-05)",-0.26796875000000003,0.11484375000000001,9.9435546875,"(0.01, 0.0, 0.0, 0.0, 0.01, 0.0, 0.0, 0.0, 0.01)"
2025/07/11/14:08:42.170632,256,1752242922,170227151,imu_link,-0.01955756314076729,0.006657249348611977,0.9449530896263437,0.3265529683845063,"(0.001, 0.0, 0.0, 0.0, 0.001, 0.0, 0.0, 0.0, 0.001)",-0.011717908596462675,-0.003195793253580729,-0.7456850925021701,"(1e-05, 0.0, 0.0, 0.0, 1e-05, 0.0, 0.0, 0.0, 1e-05)",-0.26796875000000003,0.11484375000000001,9.9435546875,"(0.01, 0.0, 0.0, 0.0, 0.01, 0.0, 0.0, 0.0, 0.01)"
2025/07/11/14:08:42.174757,257,1752242922,174228278,imu_link,-0.01955756314076729,0.006657249348611977,0.9449530896263437,0.3265529683845063,"(0.001, 0.0, 0.0, 0.0, 0.001, 0.0, 0.0, 0.0, 0.001)",-0.011717908596462675,-0.003195793253580729,-0.7456850925021701,"(1e-05, 0.0, 0.0, 0.0, 1e-05, 0.0, 0.0, 0.0, 1e-05)",0.014355468750000001,0.052636718750000006,9.857421875,"(0.01, 0.0, 0.0, 0.0, 0.01, 0.0, 0.0, 0.0, 0.01)"
2025/07/11/14:08:42.225241,258,1752242922,224740047,imu_link,-0.019616102538931975,0.0063927666646544454,0.9359887642045945,0.35142477763855723,"(0.001, 0.0, 0.0, 0.0, 0.001, 0.0, 0.0, 0.0, 0.001)",0.011717908596462675,0.058589542982313364,-0.748880885755751,"(1e-05, 0.0, 0.0, 0.0, 1e-05, 0.0, 0.0, 0.0, 1e-05)",0.19140625,0.21533203125000003,9.5703125,"(0.01, 0.0, 0.0, 0.0, 0.01, 0.0, 0.0, 0.0, 0.01)"
2025/07/11/14:08:42.270599,259,1752242922,270207545,imu_link,-0.019927667465595527,0.006348861606159436,0.9260746444169424,0.3767603123920037,"(0.001, 0.0, 0.0, 0.0, 0.001, 0.0, 0.0, 0.0, 0.001)",-0.006391586507161458,0.006391586507161458,-0.7510114145914712,"(1e-05, 0.0, 0.0, 0.0, 1e-05, 0.0, 0.0, 0.0, 1e-05)",0.19140625,0.21533203125000003,9.5703125,"(0.01, 0.0, 0.0, 0.0, 0.01, 0.0, 0.0, 0.0, 0.01)"
2025/07/11/14:08:42.275114,260,1752242922,274704522,imu_link,-0.019927667465595527,0.006348861606159436,0.9260746444169424,0.3767603123920037,"(0.001, 0.0, 0.0, 0.0, 0.001, 0.0, 0.0, 0.0, 0.001)",-0.006391586507161458,0.006391586507161458,-0.7510114145914712,"(1e-05, 0.0, 0.0, 0.0, 1e-05, 0.0, 0.0, 0.0, 1e-05)",-0.22490234375,0.33974609375000003,9.503320312500001,"(0.01, 0.0, 0.0, 0.0, 0.01, 0.0, 0.0, 0.0, 0.01)"
2025/07/11/14:08:42.325621,261,1752242922,325197280,imu_link,-0.020795692385048564,0.006055331405071298,0.9152198189531005,0.40237240851635847,"(0.001, 0.0, 0.0, 0.0, 0.001, 0.0, 0.0, 0.0, 0.001)",-0.008522115342881944,0.07882956692165799,-0.7605987943522136,"(1e-05, 0.0, 0.0, 0.0, 1e-05, 0.0, 0.0, 0.0, 1e-05)",0.08134765625000001,-0.28232421875,10.106250000000001,"(0.01, 0.0, 0.0, 0.0, 0.01, 0.0, 0.0, 0.0, 0.01)"
2025/07/11/14:08:42.370644,262,1752242922,370232047,imu_link,-0.0213901526072669,0.005792656885062369,0.9033937830301947,0.4282389277962052,"(0.001, 0.0, 0.0, 0.0, 0.001, 0.0, 0.0, 0.0, 0.001)",-0.01065264417860243,0.02663161044650608,-0.7829693471272787,"(1e-05, 0.0, 0.0, 0.0, 1e-05, 0.0, 0.0, 0.0, 1e-05)",0.08134765625000001,-0.28232421875,10.106250000000001,"(0.01, 0.0, 0.0, 0.0, 0.01, 0.0, 0.0, 0.0, 0.01)"
2025/07/11/14:08:42.375668,263,1752242922,375273353,imu_link,-0.0213901526072669,0.005792656885062369,0.9033937830301947,0.4282389277962052,"(0.001, 0.0, 0.0, 0.0, 0.001, 0.0, 0.0, 0.0, 0.001)",-0.01065264417860243,0.02663161044650608,-0.7829693471272787,"(1e-05, 0.0, 0.0, 0.0, 1e-05, 0.0, 0.0, 0.0, 1e-05)",-0.34453125,-0.07177734375,10.09189453125,"(0.01, 0.0, 0.0, 0.0, 0.01, 0.0, 0.0, 0.0, 0.01)"
2025/07/11/14:08:42.426024,264,1752242922,425606375,imu_link,-0.021751618800200524,0.0063014323915502645,0.8907210015655063,0.4539859649807766,"(0.001, 0.0, 0.0, 0.0, 0.001, 0.0, 0.0, 0.0, 0.001)",-0.006391586507161458,0.012783173014322916,-0.7595335299343533,"(1e-05, 0.0, 0.0, 0.0, 1e-05, 0.0, 0.0, 0.0, 1e-05)",-0.6747070312500001,0.49287109375000004,9.70908203125,"(0.01, 0.0, 0.0, 0.0, 0.01, 0.0, 0.0, 0.0, 0.01)"
2025/07/11/14:08:42.470691,265,1752242922,470224499,imu_link,-0.02192099874758891,0.007160714394170435,0.8775644599664225,0.4789037612998192,"(0.001, 0.0, 0.0, 0.0, 0.001, 0.0, 0.0, 0.0, 0.001)",0.012783173014322916,0.02343581719292535,-0.7531419434271919,"(1e-05, 0.0, 0.0, 0.0, 1e-05, 0.0, 0.0, 0.0, 1e-05)",-0.6747070312500001,0.49287109375000004,9.70908203125,"(0.01, 0.0, 0.0, 0.0, 0.01, 0.0, 0.0, 0.0, 0.01)"
2025/07/11/14:08:42.476241,266,1752242922,475830316,imu_link,-0.02192099874758891,0.007160714394170435,0.8775644599664225,0.4789037612998192,"(0.001, 0.0, 0.0, 0.0, 0.001, 0.0, 0.0, 0.0, 0.001)",0.012783173014322916,0.02343581719292535,-0.7531419434271919,"(1e-05, 0.0, 0.0, 0.0, 1e-05, 0.0, 0.0, 0.0, 1e-05)",0.06699218750000001,-0.50244140625,9.76171875,"(0.01, 0.0, 0.0, 0.0, 0.01, 0.0, 0.0, 0.0, 0.01)"
2025/07/11/14:08:42.526593,267,1752242922,526178302,imu_link,-0.022595167330901385,0.007397496530012147,0.8638352279901019,0.503213110264096,"(0.001, 0.0, 0.0, 0.0, 0.001, 0.0, 0.0, 0.0, 0.001)",-0.039414783460828995,0.02024002393934462,-0.7158576888020833,"(1e-05, 0.0, 0.0, 0.0, 1e-05, 0.0, 0.0, 0.0, 1e-05)",-0.248828125,0.11484375000000001,10.101464843750001,"(0.01, 0.0, 0.0, 0.0, 0.01, 0.0, 0.0, 0.0, 0.01)"
2025/07/11/14:08:42.570697,268,1752242922,570217922,imu_link,-0.02315400301303338,0.007590908888756343,0.8496875359918988,0.5267232303845453,"(0.001, 0.0, 0.0, 0.0, 0.001, 0.0, 0.0, 0.0, 0.001)",-0.011717908596462675,0.04261057671440972,-0.6934871360270183,"(1e-05, 0.0, 0.0, 0.0, 1e-05, 0.0, 0.0, 0.0, 1e-05)",-0.248828125,0.11484375000000001,10.101464843750001,"(0.01, 0.0, 0.0, 0.0, 0.01, 0.0, 0.0, 0.0, 0.01)"
2025/07/11/14:08:42.576844,269,1752242922,576313416,imu_link,-0.02315400301303338,0.007590908888756343,0.8496875359918988,0.5267232303845453,"(0.001, 0.0, 0.0, 0.0, 0.001, 0.0, 0.0, 0.0, 0.001)",-0.011717908596462675,0.04261057671440972,-0.6934871360270183,"(1e-05, 0.0, 0.0, 0.0, 1e-05, 0.0, 0.0, 0.0, 1e-05)",-0.16748046875,0.2966796875,9.575097656250001,"(0.01, 0.0, 0.0, 0.0, 0.01, 0.0, 0.0, 0.0, 0.01)"
2025/07/11/14:08:42.627023,270,1752242922,626599405,imu_link,-0.02360940986610815,0.007885201030246184,0.8355841991854751,0.5487982010193317,"(0.001, 0.0, 0.0, 0.0, 0.001, 0.0, 0.0, 0.0, 0.001)",0.018109495103624133,0.04261057671440972,-0.648746030476888,"(1e-05, 0.0, 0.0, 0.0, 1e-05, 0.0, 0.0, 0.0, 1e-05)",-0.28232421875,0.0095703125,9.8095703125,"(0.01, 0.0, 0.0, 0.0, 0.01, 0.0, 0.0, 0.0, 0.01)"
2025/07/11/14:08:42.670599,271,1752242922,670217499,imu_link,-0.024388851916927964,0.008237386299025283,0.8213138704089231,0.5698954778229508,"(0.001, 0.0, 0.0, 0.0, 0.001, 0.0, 0.0, 0.0, 0.001)",-0.02343581719292535,0.0543284853108724,-0.6178533623589411,"(1e-05, 0.0, 0.0, 0.0, 1e-05, 0.0, 0.0, 0.0, 1e-05)",-0.28232421875,0.0095703125,9.8095703125,"(0.01, 0.0, 0.0, 0.0, 0.01, 0.0, 0.0, 0.0, 0.01)"
2025/07/11/14:08:42.677094,272,1752242922,676816139,imu_link,-0.024388851916927964,0.008237386299025283,0.8213138704089231,0.5698954778229508,"(0.001, 0.0, 0.0, 0.0, 0.001, 0.0, 0.0, 0.0, 0.001)",-0.02343581719292535,0.0543284853108724,-0.6178533623589411,"(1e-05, 0.0, 0.0, 0.0, 1e-05, 0.0, 0.0, 0.0, 1e-05)",-0.2009765625,0.0,9.957910156250001,"(0.01, 0.0, 0.0, 0.0, 0.01, 0.0, 0.0, 0.0, 0.01)"
2025/07/11/14:08:42.727503,273,1752242922,727186595,imu_link,-0.024965444711848493,0.008414021238271487,0.8067987371173176,0.590238704765151,"(0.001, 0.0, 0.0, 0.0, 0.001, 0.0, 0.0, 0.0, 0.001)",-0.01065264417860243,0.04154531229654948,-0.5944175451660156,"(1e-05, 0.0, 0.0, 0.0, 1e-05, 0.0, 0.0, 0.0, 1e-05)",-0.14833984375,-0.13398437500000002,10.12060546875,"(0.01, 0.0, 0.0, 0.0, 0.01, 0.0, 0.0, 0.0, 0.01)"
2025/07/11/14:08:42.770625,274,1752242922,770236018,imu_link,-0.025168483323231804,0.00879341316632904,0.7922176806785598,0.6096559437521938,"(0.001, 0.0, 0.0, 0.0, 0.001, 0.0, 0.0, 0.0, 0.001)",0.007456850925021701,0.02769687486436632,-0.5592638193766276,"(1e-05, 0.0, 0.0, 0.0, 1e-05, 0.0, 0.0, 0.0, 1e-05)",-0.14833984375,-0.13398437500000002,10.12060546875,"(0.01, 0.0, 0.0, 0.0, 0.01, 0.0, 0.0, 0.0, 0.01)"
2025/07/11/14:08:42.777815,275,1752242922,777542168,imu_link,-0.025168483323231804,0.00879341316632904,0.7922176806785598,0.6096559437521938,"(0.001, 0.0, 0.0, 0.0, 0.001, 0.0, 0.0, 0.0, 0.001)",0.007456850925021701,0.02769687486436632,-0.5592638193766276,"(1e-05, 0.0, 0.0, 0.0, 1e-05, 0.0, 0.0, 0.0, 1e-05)",-0.49287109375000004,-0.23925781250000003,10.11103515625,"(0.01, 0.0, 0.0, 0.0, 0.01, 0.0, 0.0, 0.0, 0.01)"
2025/07/11/14:08:42.827934,276,1752242922,827631170,imu_link,-0.024760436617484043,0.00977313418080743,0.7777950935354367,0.6279539784880709,"(0.001, 0.0, 0.0, 0.0, 0.001, 0.0, 0.0, 0.0, 0.001)",0.04048004787868924,-0.008522115342881944,-0.534762737765842,"(1e-05, 0.0, 0.0, 0.0, 1e-05, 0.0, 0.0, 0.0, 1e-05)",-0.5455078125,0.57421875,9.78564453125,"(0.01, 0.0, 0.0, 0.0, 0.01, 0.0, 0.0, 0.0, 0.01)"
2025/07/11/14:08:42.870709,277,1752242922,870237500,imu_link,-0.023706685747809,0.010642303165653729,0.7632633721291822,0.6455646824294017,"(0.001, 0.0, 0.0, 0.0, 0.001, 0.0, 0.0, 0.0, 0.001)",0.012783173014322916,0.017044230685763887,-0.5241100935872396,"(1e-05, 0.0, 0.0, 0.0, 1e-05, 0.0, 0.0, 0.0, 1e-05)",-0.5455078125,0.57421875,9.78564453125,"(0.01, 0.0, 0.0, 0.0, 0.01, 0.0, 0.0, 0.0, 0.01)"
2025/07/11/14:08:42.878144,278,1752242922,877865834,imu_link,-0.023706685747809,0.010642303165653729,0.7632633721291822,0.6455646824294017,"(0.001, 0.0, 0.0, 0.0, 0.001, 0.0, 0.0, 0.0, 0.001)",0.012783173014322916,0.017044230685763887,-0.5241100935872396,"(1e-05, 0.0, 0.0, 0.0, 1e-05, 0.0, 0.0, 0.0, 1e-05)",-0.17705078125,0.18662109375000002,9.675585937500001,"(0.01, 0.0, 0.0, 0.0, 0.01, 0.0, 0.0, 0.0, 0.01)"
2025/07/11/14:08:42.928409,279,1752242922,928117286,imu_link,-0.023288324345801747,0.01107687439719137,0.7486870156158043,0.6624218515802855,"(0.001, 0.0, 0.0, 0.0, 0.001, 0.0, 0.0, 0.0, 0.001)",-0.012783173014322916,-0.004261057671440972,-0.5017395408121744,"(1e-05, 0.0, 0.0, 0.0, 1e-05, 0.0, 0.0, 0.0, 1e-05)",-0.052636718750000006,0.09091796875000001,9.986621093750001,"(0.01, 0.0, 0.0, 0.0, 0.01, 0.0, 0.0, 0.0, 0.01)"
2025/07/11/14:08:42.970636,280,1752242922,970214847,imu_link,-0.02317472805327566,0.010661156245291403,0.7340771344617327,0.6785867906079673,"(0.001, 0.0, 0.0, 0.0, 0.001, 0.0, 0.0, 0.0, 0.001)",-0.07563377366807725,-0.02343581719292535,-0.46658581502278645,"(1e-05, 0.0, 0.0, 0.0, 1e-05, 0.0, 0.0, 0.0, 1e-05)",-0.052636718750000006,0.09091796875000001,9.986621093750001,"(0.01, 0.0, 0.0, 0.0, 0.01, 0.0, 0.0, 0.0, 0.01)"
2025/07/11/14:08:42.978938,281,1752242922,978634809,imu_link,-0.02317472805327566,0.010661156245291403,0.7340771344617327,0.6785867906079673,"(0.001, 0.0, 0.0, 0.0, 0.001, 0.0, 0.0, 0.0, 0.001)",-0.07563377366807725,-0.02343581719292535,-0.46658581502278645,"(1e-05, 0.0, 0.0, 0.0, 1e-05, 0.0, 0.0, 0.0, 1e-05)",-0.21054687500000002,-0.14833984375,9.866992187500001,"(0.01, 0.0, 0.0, 0.0, 0.01, 0.0, 0.0, 0.0, 0.01)"
2025/07/11/14:08:43.029063,282,1752242923,28728780,imu_link,-0.02365160929962279,0.010827519821234413,0.7196730254346276,0.6938257004852361,"(0.001, 0.0, 0.0, 0.0, 0.001, 0.0, 0.0, 0.0, 0.001)",-0.014913701850043402,0.034088461371527774,-0.4814995168728299,"(1e-05, 0.0, 0.0, 0.0, 1e-05, 0.0, 0.0, 0.0, 1e-05)",0.06220703125,-0.24404296875,10.154101562500001,"(0.01, 0.0, 0.0, 0.0, 0.01, 0.0, 0.0, 0.0, 0.01)"
2025/07/11/14:08:43.070642,283,1752242923,70200103,imu_link,-0.02325024031483269,0.010612803921919297,0.7048566683848797,0.708889181573245,"(0.001, 0.0, 0.0, 0.0, 0.001, 0.0, 0.0, 0.0, 0.001)",0.02876213928222656,0.018109495103624133,-0.4868258389621311,"(1e-05, 0.0, 0.0, 0.0, 1e-05, 0.0, 0.0, 0.0, 1e-05)",0.06220703125,-0.24404296875,10.154101562500001,"(0.01, 0.0, 0.0, 0.0, 0.01, 0.0, 0.0, 0.0, 0.01)"
2025/07/11/14:08:43.079230,284,1752242923,78939032,imu_link,-0.02325024031483269,0.010612803921919297,0.7048566683848797,0.708889181573245,"(0.001, 0.0, 0.0, 0.0, 0.001, 0.0, 0.0, 0.0, 0.001)",0.02876213928222656,0.018109495103624133,-0.4868258389621311,"(1e-05, 0.0, 0.0, 0.0, 1e-05, 0.0, 0.0, 0.0, 1e-05)",-0.36367187500000003,0.18183593750000002,9.723437500000001,"(0.01, 0.0, 0.0, 0.0, 0.01, 0.0, 0.0, 0.0, 0.01)"
2025/07/11/14:08:43.130116,285,1752242923,129656289,imu_link,-0.02261592394043013,0.011024303703926801,0.689714934050649,0.7236437621230996,"(0.001, 0.0, 0.0, 0.0, 0.001, 0.0, 0.0, 0.0, 0.001)",0.018109495103624133,0.014913701850043402,-0.48895636779785157,"(1e-05, 0.0, 0.0, 0.0, 1e-05, 0.0, 0.0, 0.0, 1e-05)",0.0478515625,0.057421875000000004,9.39326171875,"(0.01, 0.0, 0.0, 0.0, 0.01, 0.0, 0.0, 0.0, 0.01)"
2025/07/11/14:08:43.170649,286,1752242923,170226785,imu_link,-0.022072709279701497,0.01080209723553682,0.6744501045579415,0.737911354203301,"(0.001, 0.0, 0.0, 0.0, 0.001, 0.0, 0.0, 0.0, 0.001)",0.008522115342881944,0.02876213928222656,-0.4687163438585069,"(1e-05, 0.0, 0.0, 0.0, 1e-05, 0.0, 0.0, 0.0, 1e-05)",0.0478515625,0.057421875000000004,9.39326171875,"(0.01, 0.0, 0.0, 0.0, 0.01, 0.0, 0.0, 0.0, 0.01)"
2025/07/11/14:08:43.179746,287,1752242923,179453956,imu_link,-0.022072709279701497,0.01080209723553682,0.6744501045579415,0.737911354203301,"(0.001, 0.0, 0.0, 0.0, 0.001, 0.0, 0.0, 0.0, 0.001)",0.008522115342881944,0.02876213928222656,-0.4687163438585069,"(1e-05, 0.0, 0.0, 0.0, 1e-05, 0.0, 0.0, 0.0, 1e-05)",-0.0765625,-0.14833984375,9.9435546875,"(0.01, 0.0, 0.0, 0.0, 0.01, 0.0, 0.0, 0.0, 0.01)"
2025/07/11/14:08:43.230020,288,1752242923,229739937,imu_link,-0.022572463697238435,0.01106148902279291,0.6592102747071575,0.7515383829610762,"(0.001, 0.0, 0.0, 0.0, 0.001, 0.0, 0.0, 0.0, 0.001)",-0.02343581719292535,0.04048004787868924,-0.4580636996799045,"(1e-05, 0.0, 0.0, 0.0, 1e-05, 0.0, 0.0, 0.0, 1e-05)",-0.10048828125,-0.2583984375,10.163671875,"(0.01, 0.0, 0.0, 0.0, 0.01, 0.0, 0.0, 0.0, 0.01)"
2025/07/11/14:08:43.270600,289,1752242923,270210070,imu_link,-0.02276982348583225,0.011341500827444104,0.6440970690415205,0.7645206806552245,"(0.001, 0.0, 0.0, 0.0, 0.001, 0.0, 0.0, 0.0, 0.001)",-0.012783173014322916,0.009587379760742188,-0.4356931469048394,"(1e-05, 0.0, 0.0, 0.0, 1e-05, 0.0, 0.0, 0.0, 1e-05)",-0.10048828125,-0.2583984375,10.163671875,"(0.01, 0.0, 0.0, 0.0, 0.01, 0.0, 0.0, 0.0, 0.01)"
2025/07/11/14:08:43.280317,290,1752242923,279986600,imu_link,-0.02276982348583225,0.011341500827444104,0.6440970690415205,0.7645206806552245,"(0.001, 0.0, 0.0, 0.0, 0.001, 0.0, 0.0, 0.0, 0.001)",-0.012783173014322916,0.009587379760742188,-0.4356931469048394,"(1e-05, 0.0, 0.0, 0.0, 1e-05, 0.0, 0.0, 0.0, 1e-05)",-0.55029296875,0.73212890625,9.3310546875,"(0.01, 0.0, 0.0, 0.0, 0.01, 0.0, 0.0, 0.0, 0.01)"
2025/07/11/14:08:43.331075,291,1752242923,330715382,imu_link,-0.02246298670124085,0.011964701449621086,0.629540499601692,0.7765507192121666,"(0.001, 0.0, 0.0, 0.0, 0.001, 0.0, 0.0, 0.0, 0.001)",0.060720071818033856,0.07776430250379775,-0.3994741566975912,"(1e-05, 0.0, 0.0, 0.0, 1e-05, 0.0, 0.0, 0.0, 1e-05)",-0.7560546875,0.6986328125000001,9.46982421875,"(0.01, 0.0, 0.0, 0.0, 0.01, 0.0, 0.0, 0.0, 0.01)"
2025/07/11/14:08:43.371120,292,1752242923,370677278,imu_link,-0.022909686340970882,0.012514344889207614,0.6155574054164039,0.7876595826121697,"(0.001, 0.0, 0.0, 0.0, 0.001, 0.0, 0.0, 0.0, 0.001)",-0.043675841132269966,0.03728425462510851,-0.36432043090820315,"(1e-05, 0.0, 0.0, 0.0, 1e-05, 0.0, 0.0, 0.0, 1e-05)",-0.7560546875,0.6986328125000001,9.46982421875,"(0.01, 0.0, 0.0, 0.0, 0.01, 0.0, 0.0, 0.0, 0.01)"
2025/07/11/14:08:43.381040,293,1752242923,380765199,imu_link,-0.022909686340970882,0.012514344889207614,0.6155574054164039,0.7876595826121697,"(0.001, 0.0, 0.0, 0.0, 0.001, 0.0, 0.0, 0.0, 0.001)",-0.043675841132269966,0.03728425462510851,-0.36432043090820315,"(1e-05, 0.0, 0.0, 0.0, 1e-05, 0.0, 0.0, 0.0, 1e-05)",-1.1101562500000002,0.7560546875,9.56552734375,"(0.01, 0.0, 0.0, 0.0, 0.01, 0.0, 0.0, 0.0, 0.01)"
2025/07/11/14:08:43.431185,294,1752242923,430814935,imu_link,-0.023662215552074154,0.012830429226635421,0.6021486743500124,0.7979301057232708,"(0.001, 0.0, 0.0, 0.0, 0.001, 0.0, 0.0, 0.0, 0.001)",-0.01384843743218316,0.08628641784667969,-0.3217098541937934,"(1e-05, 0.0, 0.0, 0.0, 1e-05, 0.0, 0.0, 0.0, 1e-05)",-0.765625,0.23447265625000002,10.087109375,"(0.01, 0.0, 0.0, 0.0, 0.01, 0.0, 0.0, 0.0, 0.01)"
2025/07/11/14:08:43.470659,295,1752242923,470227493,imu_link,-0.0239674375328318,0.012773409750870055,0.5893054069749546,0.8074537381494553,"(0.001, 0.0, 0.0, 0.0, 0.001, 0.0, 0.0, 0.0, 0.001)",-0.04474110555013021,-0.02450108161078559,-0.28655612840440536,"(1e-05, 0.0, 0.0, 0.0, 1e-05, 0.0, 0.0, 0.0, 1e-05)",-0.765625,0.23447265625000002,10.087109375,"(0.01, 0.0, 0.0, 0.0, 0.01, 0.0, 0.0, 0.0, 0.01)"
2025/07/11/14:08:43.481359,296,1752242923,480981891,imu_link,-0.0239674375328318,0.012773409750870055,0.5893054069749546,0.8074537381494553,"(0.001, 0.0, 0.0, 0.0, 0.001, 0.0, 0.0, 0.0, 0.001)",-0.04474110555013021,-0.02450108161078559,-0.28655612840440536,"(1e-05, 0.0, 0.0, 0.0, 1e-05, 0.0, 0.0, 0.0, 1e-05)",-0.44501953125000004,0.0861328125,9.94833984375,"(0.01, 0.0, 0.0, 0.0, 0.01, 0.0, 0.0, 0.0, 0.01)"
2025/07/11/14:08:43.531671,297,1752242923,531265055,imu_link,-0.02338083994981608,0.013001506935102883,0.5769269984969039,0.816357480241353,"(0.001, 0.0, 0.0, 0.0, 0.001, 0.0, 0.0, 0.0, 0.001)",0.003195793253580729,0.003195793253580729,-0.2769687486436632,"(1e-05, 0.0, 0.0, 0.0, 1e-05, 0.0, 0.0, 0.0, 1e-05)",-0.172265625,0.06220703125,9.66123046875,"(0.01, 0.0, 0.0, 0.0, 0.01, 0.0, 0.0, 0.0, 0.01)"
2025/07/11/14:08:43.570772,298,1752242923,570225531,imu_link,-0.022612925940794858,0.013450768035377966,0.5646076248121756,0.8249399750427956,"(0.001, 0.0, 0.0, 0.0, 0.001, 0.0, 0.0, 0.0, 0.001)",0.02450108161078559,0.015978966267903648,-0.2769687486436632,"(1e-05, 0.0, 0.0, 0.0, 1e-05, 0.0, 0.0, 0.0, 1e-05)",-0.172265625,0.06220703125,9.66123046875,"(0.01, 0.0, 0.0, 0.0, 0.01, 0.0, 0.0, 0.0, 0.01)"
2025/07/11/14:08:43.581905,299,1752242923,581524708,imu_link,-0.022612925940794858,0.013450768035377966,0.5646076248121756,0.8249399750427956,"(0.001, 0.0, 0.0, 0.0, 0.001, 0.0, 0.0, 0.0, 0.001)",0.02450108161078559,0.015978966267903648,-0.2769687486436632,"(1e-05, 0.0, 0.0, 0.0, 1e-05, 0.0, 0.0, 0.0, 1e-05)",0.13398437500000002,-0.2009765625,9.957910156250001,"(0.01, 0.0, 0.0, 0.0, 0.01, 0.0, 0.0, 0.0, 0.01)"
2025/07/11/14:08:43.632098,300,1752242923,631795604,imu_link,-0.021893908058232395,0.013265376736621232,0.5522875629981133,0.8332605440842487,"(0.001, 0.0, 0.0, 0.0, 0.001, 0.0, 0.0, 0.0, 0.001)",0.011717908596462675,0.009587379760742188,-0.2780340130615234,"(1e-05, 0.0, 0.0, 0.0, 1e-05, 0.0, 0.0, 0.0, 1e-05)",-0.09091796875000001,-0.38759765625000003,10.13974609375,"(0.01, 0.0, 0.0, 0.0, 0.01, 0.0, 0.0, 0.0, 0.01)"
2025/07/11/14:08:43.670777,301,1752242923,670208556,imu_link,-0.021089669496376966,0.014145165582308238,0.5400342414453062,0.8412598636555622,"(0.001, 0.0, 0.0, 0.0, 0.001, 0.0, 0.0, 0.0, 0.001)",-0.001065264417860243,-0.01384843743218316,-0.2844255995686849,"(1e-05, 0.0, 0.0, 0.0, 1e-05, 0.0, 0.0, 0.0, 1e-05)",-0.09091796875000001,-0.38759765625000003,10.13974609375,"(0.01, 0.0, 0.0, 0.0, 0.01, 0.0, 0.0, 0.0, 0.01)"
2025/07/11/14:08:43.682469,302,1752242923,682067193,imu_link,-0.021089669496376966,0.014145165582308238,0.5400342414453062,0.8412598636555622,"(0.001, 0.0, 0.0, 0.0, 0.001, 0.0, 0.0, 0.0, 0.001)",-0.001065264417860243,-0.01384843743218316,-0.2844255995686849,"(1e-05, 0.0, 0.0, 0.0, 1e-05, 0.0, 0.0, 0.0, 1e-05)",-0.21054687500000002,0.28232421875,9.91962890625,"(0.01, 0.0, 0.0, 0.0, 0.01, 0.0, 0.0, 0.0, 0.01)"
2025/07/11/14:08:43.732755,303,1752242923,732341327,imu_link,-0.01973571774615701,0.014146319926449344,0.5277908531961426,0.8490272070788252,"(0.001, 0.0, 0.0, 0.0, 0.001, 0.0, 0.0, 0.0, 0.001)",0.02450108161078559,-0.014913701850043402,-0.27590348422580296,"(1e-05, 0.0, 0.0, 0.0, 1e-05, 0.0, 0.0, 0.0, 1e-05)",-0.25361328125000004,0.18183593750000002,9.579882812500001,"(0.01, 0.0, 0.0, 0.0, 0.01, 0.0, 0.0, 0.0, 0.01)"
2025/07/11/14:08:43.770682,304,1752242923,770224964,imu_link,-0.019029427759484102,0.014220172696580227,0.5160572171213813,0.8562246295362926,"(0.001, 0.0, 0.0, 0.0, 0.001, 0.0, 0.0, 0.0, 0.001)",-0.007456850925021701,0.007456850925021701,-0.24394555168999565,"(1e-05, 0.0, 0.0, 0.0, 1e-05, 0.0, 0.0, 0.0, 1e-05)",-0.25361328125000004,0.18183593750000002,9.579882812500001,"(0.01, 0.0, 0.0, 0.0, 0.01, 0.0, 0.0, 0.0, 0.01)"
2025/07/11/14:08:43.782977,305,1752242923,782628790,imu_link,-0.019029427759484102,0.014220172696580227,0.5160572171213813,0.8562246295362926,"(0.001, 0.0, 0.0, 0.0, 0.001, 0.0, 0.0, 0.0, 0.001)",-0.007456850925021701,0.007456850925021701,-0.24394555168999565,"(1e-05, 0.0, 0.0, 0.0, 1e-05, 0.0, 0.0, 0.0, 1e-05)",-0.708203125,0.42109375000000004,9.8095703125,"(0.01, 0.0, 0.0, 0.0, 0.01, 0.0, 0.0, 0.0, 0.01)"
2025/07/11/14:08:43.833287,306,1752242923,832906272,imu_link,-0.018281159003071746,0.014072674952853208,0.5049301955278728,0.8628518161824544,"(0.001, 0.0, 0.0, 0.0, 0.001, 0.0, 0.0, 0.0, 0.001)",0.014913701850043402,-0.005326322089301215,-0.2151834124077691,"(1e-05, 0.0, 0.0, 0.0, 1e-05, 0.0, 0.0, 0.0, 1e-05)",0.11005859375,-0.00478515625,10.130175781250001,"(0.01, 0.0, 0.0, 0.0, 0.01, 0.0, 0.0, 0.0, 0.01)"
2025/07/11/14:08:43.870602,307,1752242923,870206155,imu_link,-0.017505644313400612,0.013922688768764138,0.494175825502097,0.8690741997343734,"(0.001, 0.0, 0.0, 0.0, 0.001, 0.0, 0.0, 0.0, 0.001)",-0.01065264417860243,-0.01384843743218316,-0.2151834124077691,"(1e-05, 0.0, 0.0, 0.0, 1e-05, 0.0, 0.0, 0.0, 1e-05)",0.11005859375,-0.00478515625,10.130175781250001,"(0.01, 0.0, 0.0, 0.0, 0.01, 0.0, 0.0, 0.0, 0.01)"
2025/07/11/14:08:43.883422,308,1752242923,883113668,imu_link,-0.017505644313400612,0.013922688768764138,0.494175825502097,0.8690741997343734,"(0.001, 0.0, 0.0, 0.0, 0.001, 0.0, 0.0, 0.0, 0.001)",-0.01065264417860243,-0.01384843743218316,-0.2151834124077691,"(1e-05, 0.0, 0.0, 0.0, 1e-05, 0.0, 0.0, 0.0, 1e-05)",0.095703125,0.1435546875,9.838281250000001,"(0.01, 0.0, 0.0, 0.0, 0.01, 0.0, 0.0, 0.0, 0.01)"
2025/07/11/14:08:43.933759,309,1752242923,933394727,imu_link,-0.016985044513264557,0.013887816241253969,0.4837657102296761,0.8749224962411862,"(0.001, 0.0, 0.0, 0.0, 0.001, 0.0, 0.0, 0.0, 0.001)",-0.025566346028645832,-0.02024002393934462,-0.192812859632704,"(1e-05, 0.0, 0.0, 0.0, 1e-05, 0.0, 0.0, 0.0, 1e-05)",0.30146484375000004,-0.06220703125,9.68994140625,"(0.01, 0.0, 0.0, 0.0, 0.01, 0.0, 0.0, 0.0, 0.01)"
2025/07/11/14:08:43.970617,310,1752242923,970233368,imu_link,-0.017065102360776987,0.014113208451029261,0.4739236239401296,0.8802874520860153,"(0.001, 0.0, 0.0, 0.0, 0.001, 0.0, 0.0, 0.0, 0.001)",-0.02769687486436632,0.043675841132269966,-0.1906823307969835,"(1e-05, 0.0, 0.0, 0.0, 1e-05, 0.0, 0.0, 0.0, 1e-05)",0.30146484375000004,-0.06220703125,9.68994140625,"(0.01, 0.0, 0.0, 0.0, 0.01, 0.0, 0.0, 0.0, 0.01)"
2025/07/11/14:08:43.983986,311,1752242923,983728874,imu_link,-0.017065102360776987,0.014113208451029261,0.4739236239401296,0.8802874520860153,"(0.001, 0.0, 0.0, 0.0, 0.001, 0.0, 0.0, 0.0, 0.001)",-0.02769687486436632,0.043675841132269966,-0.1906823307969835,"(1e-05, 0.0, 0.0, 0.0, 1e-05, 0.0, 0.0, 0.0, 1e-05)",-0.15791015625000002,-0.13876953125000002,9.981835937500001,"(0.01, 0.0, 0.0, 0.0, 0.01, 0.0, 0.0, 0.0, 0.01)"
2025/07/11/14:08:44.033992,312,1752242924,33822853,imu_link,-0.01739895208979824,0.014206173636949891,0.4641535227249838,0.8854699139094235,"(0.001, 0.0, 0.0, 0.0, 0.001, 0.0, 0.0, 0.0, 0.001)",-0.02130528835720486,0.02343581719292535,-0.19387812405056423,"(1e-05, 0.0, 0.0, 0.0, 1e-05, 0.0, 0.0, 0.0, 1e-05)",-0.47851562500000006,0.20576171875000002,10.01533203125,"(0.01, 0.0, 0.0, 0.0, 0.01, 0.0, 0.0, 0.0, 0.01)"
2025/07/11/14:08:44.070502,313,1752242924,70204097,imu_link,-0.01715985656729684,0.014327766851415078,0.45466103175744577,0.8903839624683814,"(0.001, 0.0, 0.0, 0.0, 0.001, 0.0, 0.0, 0.0, 0.001)",-0.001065264417860243,0.012783173014322916,-0.18429074428982206,"(1e-05, 0.0, 0.0, 0.0, 1e-05, 0.0, 0.0, 0.0, 1e-05)",-0.47851562500000006,0.20576171875000002,10.01533203125,"(0.01, 0.0, 0.0, 0.0, 0.01, 0.0, 0.0, 0.0, 0.01)"
2025/07/11/14:08:44.084606,314,1752242924,84143491,imu_link,-0.01715985656729684,0.014327766851415078,0.45466103175744577,0.8903839624683814,"(0.001, 0.0, 0.0, 0.0, 0.001, 0.0, 0.0, 0.0, 0.001)",-0.001065264417860243,0.012783173014322916,-0.18429074428982206,"(1e-05, 0.0, 0.0, 0.0, 1e-05, 0.0, 0.0, 0.0, 1e-05)",-0.21533203125000003,0.26318359375,9.3501953125,"(0.01, 0.0, 0.0, 0.0, 0.01, 0.0, 0.0, 0.0, 0.01)"
2025/07/11/14:08:44.134708,315,1752242924,134395489,imu_link,-0.01710001756119238,0.014029976490765348,0.445593596345697,0.894962064031087,"(0.001, 0.0, 0.0, 0.0, 0.001, 0.0, 0.0, 0.0, 0.001)",0.001065264417860243,0.05965480740017361,-0.15659386942545575,"(1e-05, 0.0, 0.0, 0.0, 1e-05, 0.0, 0.0, 0.0, 1e-05)",-0.52158203125,0.248828125,9.747363281250001,"(0.01, 0.0, 0.0, 0.0, 0.01, 0.0, 0.0, 0.0, 0.01)"
2025/07/11/14:08:44.170577,316,1752242924,170222905,imu_link,-0.01739095575802696,0.014517985671828373,0.43708223500527765,0.8991361980215491,"(0.001, 0.0, 0.0, 0.0, 0.001, 0.0, 0.0, 0.0, 0.001)",-0.01065264417860243,0.01384843743218316,-0.1512675473361545,"(1e-05, 0.0, 0.0, 0.0, 1e-05, 0.0, 0.0, 0.0, 1e-05)",-0.52158203125,0.248828125,9.747363281250001,"(0.01, 0.0, 0.0, 0.0, 0.01, 0.0, 0.0, 0.0, 0.01)"
2025/07/11/14:08:44.185324,317,1752242924,184816350,imu_link,-0.01739095575802696,0.014517985671828373,0.43708223500527765,0.8991361980215491,"(0.001, 0.0, 0.0, 0.0, 0.001, 0.0, 0.0, 0.0, 0.001)",-0.01065264417860243,0.01384843743218316,-0.1512675473361545,"(1e-05, 0.0, 0.0, 0.0, 1e-05, 0.0, 0.0, 0.0, 1e-05)",-0.00478515625,-0.09091796875000001,10.201953125000001,"(0.01, 0.0, 0.0, 0.0, 0.01, 0.0, 0.0, 0.0, 0.01)"
2025/07/11/14:08:44.235266,318,1752242924,234974188,imu_link,-0.016839694796000386,0.01423681208370188,0.4289589290362309,0.9030548018038334,"(0.001, 0.0, 0.0, 0.0, 0.001, 0.0, 0.0, 0.0, 0.001)",-0.001065264417860243,-0.03089266811794705,-0.13315805223253038,"(1e-05, 0.0, 0.0, 0.0, 1e-05, 0.0, 0.0, 0.0, 1e-05)",-0.7943359375000001,0.6603515625,9.66123046875,"(0.01, 0.0, 0.0, 0.0, 0.01, 0.0, 0.0, 0.0, 0.01)"
2025/07/11/14:08:44.270582,319,1752242924,270202978,imu_link,-0.015456022984953927,0.015174640675157704,0.4215199384666681,0.9065604133806663,"(0.001, 0.0, 0.0, 0.0, 0.001, 0.0, 0.0, 0.0, 0.001)",0.039414783460828995,0.007456850925021701,-0.1288969945610894,"(1e-05, 0.0, 0.0, 0.0, 1e-05, 0.0, 0.0, 0.0, 1e-05)",-0.7943359375000001,0.6603515625,9.66123046875,"(0.01, 0.0, 0.0, 0.0, 0.01, 0.0, 0.0, 0.0, 0.01)"
2025/07/11/14:08:44.285689,320,1752242924,285326347,imu_link,-0.015456022984953927,0.015174640675157704,0.4215199384666681,0.9065604133806663,"(0.001, 0.0, 0.0, 0.0, 0.001, 0.0, 0.0, 0.0, 0.001)",0.039414783460828995,0.007456850925021701,-0.1288969945610894,"(1e-05, 0.0, 0.0, 0.0, 1e-05, 0.0, 0.0, 0.0, 1e-05)",0.0095703125,0.0095703125,9.76171875,"(0.01, 0.0, 0.0, 0.0, 0.01, 0.0, 0.0, 0.0, 0.01)"
2025/07/11/14:08:44.335843,321,1752242924,335513240,imu_link,-0.014122253676804045,0.014479336180598452,0.41437044475947954,0.9098835339122741,"(0.001, 0.0, 0.0, 0.0, 0.001, 0.0, 0.0, 0.0, 0.001)",0.004261057671440972,-0.043675841132269966,-0.10652644178602431,"(1e-05, 0.0, 0.0, 0.0, 1e-05, 0.0, 0.0, 0.0, 1e-05)",-0.07177734375,0.13398437500000002,9.80478515625,"(0.01, 0.0, 0.0, 0.0, 0.01, 0.0, 0.0, 0.0, 0.01)"
2025/07/11/14:08:44.370599,322,1752242924,370223561,imu_link,-0.013316316214971494,0.0145244716311525,0.40807128581233326,0.9127373889250772,"(0.001, 0.0, 0.0, 0.0, 0.001, 0.0, 0.0, 0.0, 0.001)",-0.002130528835720486,-0.014913701850043402,-0.07882956692165799,"(1e-05, 0.0, 0.0, 0.0, 1e-05, 0.0, 0.0, 0.0, 1e-05)",-0.07177734375,0.13398437500000002,9.80478515625,"(0.01, 0.0, 0.0, 0.0, 0.01, 0.0, 0.0, 0.0, 0.01)"
2025/07/11/14:08:44.386106,323,1752242924,385755585,imu_link,-0.013316316214971494,0.0145244716311525,0.40807128581233326,0.9127373889250772,"(0.001, 0.0, 0.0, 0.0, 0.001, 0.0, 0.0, 0.0, 0.001)",-0.002130528835720486,-0.014913701850043402,-0.07882956692165799,"(1e-05, 0.0, 0.0, 0.0, 1e-05, 0.0, 0.0, 0.0, 1e-05)",-0.287109375,0.44501953125000004,9.58466796875,"(0.01, 0.0, 0.0, 0.0, 0.01, 0.0, 0.0, 0.0, 0.01)"
2025/07/11/14:08:44.436441,324,1752242924,436058034,imu_link,-0.012595905089791748,0.014257235301844862,0.4021508816380966,0.9153757385982101,"(0.001, 0.0, 0.0, 0.0, 0.001, 0.0, 0.0, 0.0, 0.001)",0.039414783460828995,0.02450108161078559,-0.07350324483235678,"(1e-05, 0.0, 0.0, 0.0, 1e-05, 0.0, 0.0, 0.0, 1e-05)",0.36845703125,-0.08134765625000001,9.8095703125,"(0.01, 0.0, 0.0, 0.0, 0.01, 0.0, 0.0, 0.0, 0.01)"
2025/07/11/14:08:44.470658,325,1752242924,470236136,imu_link,-0.011909877465083533,0.013913723259807111,0.3965664447671115,0.917823304350347,"(0.001, 0.0, 0.0, 0.0, 0.001, 0.0, 0.0, 0.0, 0.001)",0.008522115342881944,0.005326322089301215,-0.08096009575737848,"(1e-05, 0.0, 0.0, 0.0, 1e-05, 0.0, 0.0, 0.0, 1e-05)",0.36845703125,-0.08134765625000001,9.8095703125,"(0.01, 0.0, 0.0, 0.0, 0.01, 0.0, 0.0, 0.0, 0.01)"
2025/07/11/14:08:44.486621,326,1752242924,486313890,imu_link,-0.011909877465083533,0.013913723259807111,0.3965664447671115,0.917823304350347,"(0.001, 0.0, 0.0, 0.0, 0.001, 0.0, 0.0, 0.0, 0.001)",0.008522115342881944,0.005326322089301215,-0.08096009575737848,"(1e-05, 0.0, 0.0, 0.0, 1e-05, 0.0, 0.0, 0.0, 1e-05)",0.1244140625,0.014355468750000001,10.0201171875,"(0.01, 0.0, 0.0, 0.0, 0.01, 0.0, 0.0, 0.0, 0.01)"
2025/07/11/14:08:44.537092,327,1752242924,536819860,imu_link,-0.011106275970534995,0.013771308891619692,0.3908320789501979,0.920291957885618,"(0.001, 0.0, 0.0, 0.0, 0.001, 0.0, 0.0, 0.0, 0.001)",0.001065264417860243,-0.022370552775065104,-0.09480853318956163,"(1e-05, 0.0, 0.0, 0.0, 1e-05, 0.0, 0.0, 0.0, 1e-05)",0.32060546875,0.06220703125,9.938769531250001,"(0.01, 0.0, 0.0, 0.0, 0.01, 0.0, 0.0, 0.0, 0.01)"
2025/07/11/14:08:44.570652,328,1752242924,570223174,imu_link,-0.010458546878666087,0.013867374314383073,0.3849941226639742,0.9227555690652905,"(0.001, 0.0, 0.0, 0.0, 0.001, 0.0, 0.0, 0.0, 0.001)",-0.031957932535807296,0.0,-0.10972223503960503,"(1e-05, 0.0, 0.0, 0.0, 1e-05, 0.0, 0.0, 0.0, 1e-05)",0.32060546875,0.06220703125,9.938769531250001,"(0.01, 0.0, 0.0, 0.0, 0.01, 0.0, 0.0, 0.0, 0.01)"
2025/07/11/14:08:44.587161,329,1752242924,586823376,imu_link,-0.010458546878666087,0.013867374314383073,0.3849941226639742,0.9227555690652905,"(0.001, 0.0, 0.0, 0.0, 0.001, 0.0, 0.0, 0.0, 0.001)",-0.031957932535807296,0.0,-0.10972223503960503,"(1e-05, 0.0, 0.0, 0.0, 1e-05, 0.0, 0.0, 0.0, 1e-05)",-0.11484375000000001,-0.16269531250000002,10.09189453125,"(0.01, 0.0, 0.0, 0.0, 0.01, 0.0, 0.0, 0.0, 0.01)"
