time,.header.seq,.header.stamp.secs,.header.stamp.nsecs,.header.frame_id,.orientation.x,.orientation.y,.orientation.z,.orientation.w,.orientation_covariance,.angular_velocity.x,.angular_velocity.y,.angular_velocity.z,.angular_velocity_covariance,.linear_acceleration.x,.linear_acceleration.y,.linear_acceleration.z,.linear_acceleration_covariance
2025/06/01/05:05:36.796866,14,1748754336,796126296,imu_link,-0.026082525261705614,0.02156601855916867,-0.6520174011561904,0.7574482934887407,"(0.001, 0.0, 0.0, 0.0, 0.001, 0.0, 0.0, 0.0, 0.001)",0.0,0.0,0.0,"(1e-05, 0.0, 0.0, 0.0, 1e-05, 0.0, 0.0, 0.0, 1e-05)",0.0,-0.6794921875000001,9.77607421875,"(0.01, 0.0, 0.0, 0.0, 0.01, 0.0, 0.0, 0.0, 0.01)"
2025/06/01/05:05:36.801849,15,1748754336,801319685,imu_link,-0.026082525261705614,0.02156601855916867,-0.6520174011561904,0.7574482934887407,"(0.001, 0.0, 0.0, 0.0, 0.001, 0.0, 0.0, 0.0, 0.001)",0.0,0.0,0.0,"(1e-05, 0.0, 0.0, 0.0, 1e-05, 0.0, 0.0, 0.0, 1e-05)",0.0,-0.669921875,9.77607421875,"(0.01, 0.0, 0.0, 0.0, 0.01, 0.0, 0.0, 0.0, 0.01)"
2025/06/01/05:05:36.851707,16,1748754336,851302666,imu_link,-0.026082525261705614,0.02156601855916867,-0.6520174011561904,0.7574482934887407,"(0.001, 0.0, 0.0, 0.0, 0.001, 0.0, 0.0, 0.0, 0.001)",0.0,0.0,0.0,"(1e-05, 0.0, 0.0, 0.0, 1e-05, 0.0, 0.0, 0.0, 1e-05)",0.0,-0.66513671875,9.77607421875,"(0.01, 0.0, 0.0, 0.0, 0.01, 0.0, 0.0, 0.0, 0.01)"
2025/06/01/05:05:36.896575,17,1748754336,896146368,imu_link,-0.026082525261705614,0.02156601855916867,-0.6520174011561904,0.7574482934887407,"(0.001, 0.0, 0.0, 0.0, 0.001, 0.0, 0.0, 0.0, 0.001)",0.0,0.0,0.0,"(1e-05, 0.0, 0.0, 0.0, 1e-05, 0.0, 0.0, 0.0, 1e-05)",0.0,-0.66513671875,9.77607421875,"(0.01, 0.0, 0.0, 0.0, 0.01, 0.0, 0.0, 0.0, 0.01)"
2025/06/01/05:05:36.901758,18,1748754336,901518676,imu_link,-0.026082525261705614,0.02156601855916867,-0.6520174011561904,0.7574482934887407,"(0.001, 0.0, 0.0, 0.0, 0.001, 0.0, 0.0, 0.0, 0.001)",0.0,0.0,0.0,"(1e-05, 0.0, 0.0, 0.0, 1e-05, 0.0, 0.0, 0.0, 1e-05)",0.00478515625,-0.66513671875,9.77607421875,"(0.01, 0.0, 0.0, 0.0, 0.01, 0.0, 0.0, 0.0, 0.01)"
2025/06/01/05:05:36.952209,19,1748754336,951796690,imu_link,-0.026082525261705614,0.02156601855916867,-0.6520174011561904,0.7574482934887407,"(0.001, 0.0, 0.0, 0.0, 0.001, 0.0, 0.0, 0.0, 0.001)",0.0,0.0,0.0,"(1e-05, 0.0, 0.0, 0.0, 1e-05, 0.0, 0.0, 0.0, 1e-05)",0.00478515625,-0.66513671875,9.77607421875,"(0.01, 0.0, 0.0, 0.0, 0.01, 0.0, 0.0, 0.0, 0.01)"
2025/06/01/05:05:36.996500,20,1748754336,996143398,imu_link,-0.026082525261705614,0.02156601855916867,-0.6520174011561904,0.7574482934887407,"(0.001, 0.0, 0.0, 0.0, 0.001, 0.0, 0.0, 0.0, 0.001)",0.0,0.0,0.0,"(1e-05, 0.0, 0.0, 0.0, 1e-05, 0.0, 0.0, 0.0, 1e-05)",0.00478515625,-0.66513671875,9.77607421875,"(0.01, 0.0, 0.0, 0.0, 0.01, 0.0, 0.0, 0.0, 0.01)"
2025/06/01/05:05:37.002267,21,1748754337,2007260,imu_link,-0.026082525261705614,0.02156601855916867,-0.6520174011561904,0.7574482934887407,"(0.001, 0.0, 0.0, 0.0, 0.001, 0.0, 0.0, 0.0, 0.001)",0.0,0.0,0.0,"(1e-05, 0.0, 0.0, 0.0, 1e-05, 0.0, 0.0, 0.0, 1e-05)",0.0,-0.669921875,9.780859375,"(0.01, 0.0, 0.0, 0.0, 0.01, 0.0, 0.0, 0.0, 0.01)"
2025/06/01/05:05:37.053006,22,1748754337,52587907,imu_link,-0.026082525261705614,0.02156601855916867,-0.6520174011561904,0.7574482934887407,"(0.001, 0.0, 0.0, 0.0, 0.001, 0.0, 0.0, 0.0, 0.001)",0.0,0.0,0.0,"(1e-05, 0.0, 0.0, 0.0, 1e-05, 0.0, 0.0, 0.0, 1e-05)",0.0,-0.669921875,9.77607421875,"(0.01, 0.0, 0.0, 0.0, 0.01, 0.0, 0.0, 0.0, 0.01)"
2025/06/01/05:05:37.096607,23,1748754337,96167707,imu_link,-0.026082525261705614,0.02156601855916867,-0.6520174011561904,0.7574482934887407,"(0.001, 0.0, 0.0, 0.0, 0.001, 0.0, 0.0, 0.0, 0.001)",0.0,0.0,0.0,"(1e-05, 0.0, 0.0, 0.0, 1e-05, 0.0, 0.0, 0.0, 1e-05)",0.0,-0.669921875,9.77607421875,"(0.01, 0.0, 0.0, 0.0, 0.01, 0.0, 0.0, 0.0, 0.01)"
2025/06/01/05:05:37.102936,24,1748754337,102587053,imu_link,-0.026082525261705614,0.02156601855916867,-0.6520174011561904,0.7574482934887407,"(0.001, 0.0, 0.0, 0.0, 0.001, 0.0, 0.0, 0.0, 0.001)",0.0,0.0,0.0,"(1e-05, 0.0, 0.0, 0.0, 1e-05, 0.0, 0.0, 0.0, 1e-05)",0.0,-0.6747070312500001,9.77607421875,"(0.01, 0.0, 0.0, 0.0, 0.01, 0.0, 0.0, 0.0, 0.01)"
2025/06/01/05:05:37.153512,25,1748754337,153096138,imu_link,-0.026082525261705614,0.02156601855916867,-0.6520174011561904,0.7574482934887407,"(0.001, 0.0, 0.0, 0.0, 0.001, 0.0, 0.0, 0.0, 0.001)",0.0,0.0,0.0,"(1e-05, 0.0, 0.0, 0.0, 1e-05, 0.0, 0.0, 0.0, 1e-05)",0.00478515625,-0.669921875,9.77607421875,"(0.01, 0.0, 0.0, 0.0, 0.01, 0.0, 0.0, 0.0, 0.01)"
2025/06/01/05:05:37.197005,26,1748754337,196504503,imu_link,-0.026082525261705614,0.02156601855916867,-0.6520174011561904,0.7574482934887407,"(0.001, 0.0, 0.0, 0.0, 0.001, 0.0, 0.0, 0.0, 0.001)",0.0,0.0,0.0,"(1e-05, 0.0, 0.0, 0.0, 1e-05, 0.0, 0.0, 0.0, 1e-05)",0.00478515625,-0.669921875,9.77607421875,"(0.01, 0.0, 0.0, 0.0, 0.01, 0.0, 0.0, 0.0, 0.01)"
2025/06/01/05:05:37.203546,27,1748754337,203034613,imu_link,-0.026082525261705614,0.02156601855916867,-0.6520174011561904,0.7574482934887407,"(0.001, 0.0, 0.0, 0.0, 0.001, 0.0, 0.0, 0.0, 0.001)",0.0,0.0,0.0,"(1e-05, 0.0, 0.0, 0.0, 1e-05, 0.0, 0.0, 0.0, 1e-05)",0.00478515625,-0.6603515625,9.77607421875,"(0.01, 0.0, 0.0, 0.0, 0.01, 0.0, 0.0, 0.0, 0.01)"
2025/06/01/05:05:37.253901,28,1748754337,253440599,imu_link,-0.026082525261705614,0.02156601855916867,-0.6520174011561904,0.7574482934887407,"(0.001, 0.0, 0.0, 0.0, 0.001, 0.0, 0.0, 0.0, 0.001)",0.0,0.0,0.0,"(1e-05, 0.0, 0.0, 0.0, 1e-05, 0.0, 0.0, 0.0, 1e-05)",0.0095703125,-0.66513671875,9.77607421875,"(0.01, 0.0, 0.0, 0.0, 0.01, 0.0, 0.0, 0.0, 0.01)"
2025/06/01/05:05:37.296849,29,1748754337,296341639,imu_link,-0.026082525261705614,0.02156601855916867,-0.6520174011561904,0.7574482934887407,"(0.001, 0.0, 0.0, 0.0, 0.001, 0.0, 0.0, 0.0, 0.001)",0.0,0.0,0.0,"(1e-05, 0.0, 0.0, 0.0, 1e-05, 0.0, 0.0, 0.0, 1e-05)",0.0095703125,-0.66513671875,9.77607421875,"(0.01, 0.0, 0.0, 0.0, 0.01, 0.0, 0.0, 0.0, 0.01)"
2025/06/01/05:05:37.304110,30,1748754337,303720862,imu_link,-0.026082525261705614,0.02156601855916867,-0.6520174011561904,0.7574482934887407,"(0.001, 0.0, 0.0, 0.0, 0.001, 0.0, 0.0, 0.0, 0.001)",0.0,0.0,0.0,"(1e-05, 0.0, 0.0, 0.0, 1e-05, 0.0, 0.0, 0.0, 1e-05)",0.0,-0.669921875,9.780859375,"(0.01, 0.0, 0.0, 0.0, 0.01, 0.0, 0.0, 0.0, 0.01)"
2025/06/01/05:05:37.354481,31,1748754337,354003281,imu_link,-0.026082525261705614,0.02156601855916867,-0.6520174011561904,0.7574482934887407,"(0.001, 0.0, 0.0, 0.0, 0.001, 0.0, 0.0, 0.0, 0.001)",0.0,0.0,0.0,"(1e-05, 0.0, 0.0, 0.0, 1e-05, 0.0, 0.0, 0.0, 1e-05)",0.0,-0.669921875,9.771289062500001,"(0.01, 0.0, 0.0, 0.0, 0.01, 0.0, 0.0, 0.0, 0.01)"
2025/06/01/05:05:37.396630,32,1748754337,396168247,imu_link,-0.026082525261705614,0.02156601855916867,-0.6520174011561904,0.7574482934887407,"(0.001, 0.0, 0.0, 0.0, 0.001, 0.0, 0.0, 0.0, 0.001)",0.0,0.0,0.0,"(1e-05, 0.0, 0.0, 0.0, 1e-05, 0.0, 0.0, 0.0, 1e-05)",0.0,-0.669921875,9.771289062500001,"(0.01, 0.0, 0.0, 0.0, 0.01, 0.0, 0.0, 0.0, 0.01)"
2025/06/01/05:05:37.404410,33,1748754337,404036971,imu_link,-0.026082525261705614,0.02156601855916867,-0.6520174011561904,0.7574482934887407,"(0.001, 0.0, 0.0, 0.0, 0.001, 0.0, 0.0, 0.0, 0.001)",0.0,0.0,0.0,"(1e-05, 0.0, 0.0, 0.0, 1e-05, 0.0, 0.0, 0.0, 1e-05)",0.0,-0.6747070312500001,9.77607421875,"(0.01, 0.0, 0.0, 0.0, 0.01, 0.0, 0.0, 0.0, 0.01)"
2025/06/01/05:05:37.455058,34,1748754337,454516632,imu_link,-0.026082525261705614,0.02156601855916867,-0.6520174011561904,0.7574482934887407,"(0.001, 0.0, 0.0, 0.0, 0.001, 0.0, 0.0, 0.0, 0.001)",0.0,0.0,0.0,"(1e-05, 0.0, 0.0, 0.0, 1e-05, 0.0, 0.0, 0.0, 1e-05)",0.0,-0.6747070312500001,9.77607421875,"(0.01, 0.0, 0.0, 0.0, 0.01, 0.0, 0.0, 0.0, 0.01)"
2025/06/01/05:05:37.496603,35,1748754337,496162312,imu_link,-0.026082525261705614,0.02156601855916867,-0.6520174011561904,0.7574482934887407,"(0.001, 0.0, 0.0, 0.0, 0.001, 0.0, 0.0, 0.0, 0.001)",0.0,0.0,0.0,"(1e-05, 0.0, 0.0, 0.0, 1e-05, 0.0, 0.0, 0.0, 1e-05)",0.0,-0.6747070312500001,9.77607421875,"(0.01, 0.0, 0.0, 0.0, 0.01, 0.0, 0.0, 0.0, 0.01)"
2025/06/01/05:05:37.504970,36,1748754337,504547978,imu_link,-0.026082525261705614,0.02156601855916867,-0.6520174011561904,0.7574482934887407,"(0.001, 0.0, 0.0, 0.0, 0.001, 0.0, 0.0, 0.0, 0.001)",0.0,0.0,0.0,"(1e-05, 0.0, 0.0, 0.0, 1e-05, 0.0, 0.0, 0.0, 1e-05)",0.00478515625,-0.669921875,9.77607421875,"(0.01, 0.0, 0.0, 0.0, 0.01, 0.0, 0.0, 0.0, 0.01)"
2025/06/01/05:05:37.555531,37,1748754337,555009015,imu_link,-0.026082525261705614,0.02156601855916867,-0.6520174011561904,0.7574482934887407,"(0.001, 0.0, 0.0, 0.0, 0.001, 0.0, 0.0, 0.0, 0.001)",0.0,0.0,0.0,"(1e-05, 0.0, 0.0, 0.0, 1e-05, 0.0, 0.0, 0.0, 1e-05)",0.0,-0.6555664062500001,9.771289062500001,"(0.01, 0.0, 0.0, 0.0, 0.01, 0.0, 0.0, 0.0, 0.01)"
2025/06/01/05:05:37.596590,38,1748754337,596181634,imu_link,-0.026082525261705614,0.02156601855916867,-0.6520174011561904,0.7574482934887407,"(0.001, 0.0, 0.0, 0.0, 0.001, 0.0, 0.0, 0.0, 0.001)",0.0,0.0,0.0,"(1e-05, 0.0, 0.0, 0.0, 1e-05, 0.0, 0.0, 0.0, 1e-05)",0.0,-0.6555664062500001,9.771289062500001,"(0.01, 0.0, 0.0, 0.0, 0.01, 0.0, 0.0, 0.0, 0.01)"
2025/06/01/05:05:37.605416,39,1748754337,605032176,imu_link,-0.026082525261705614,0.02156601855916867,-0.6520174011561904,0.7574482934887407,"(0.001, 0.0, 0.0, 0.0, 0.001, 0.0, 0.0, 0.0, 0.001)",0.0,0.0,0.0,"(1e-05, 0.0, 0.0, 0.0, 1e-05, 0.0, 0.0, 0.0, 1e-05)",0.0,-0.669921875,9.77607421875,"(0.01, 0.0, 0.0, 0.0, 0.01, 0.0, 0.0, 0.0, 0.01)"
2025/06/01/05:05:37.656015,40,1748754337,655523478,imu_link,-0.026082525261705614,0.02156601855916867,-0.6520174011561904,0.7574482934887407,"(0.001, 0.0, 0.0, 0.0, 0.001, 0.0, 0.0, 0.0, 0.001)",0.0,0.0,0.0,"(1e-05, 0.0, 0.0, 0.0, 1e-05, 0.0, 0.0, 0.0, 1e-05)",0.00478515625,-0.6747070312500001,9.780859375,"(0.01, 0.0, 0.0, 0.0, 0.01, 0.0, 0.0, 0.0, 0.01)"
2025/06/01/05:05:37.696542,41,1748754337,696149691,imu_link,-0.026082525261705614,0.02156601855916867,-0.6520174011561904,0.7574482934887407,"(0.001, 0.0, 0.0, 0.0, 0.001, 0.0, 0.0, 0.0, 0.001)",0.0,0.0,0.0,"(1e-05, 0.0, 0.0, 0.0, 1e-05, 0.0, 0.0, 0.0, 1e-05)",0.00478515625,-0.6747070312500001,9.780859375,"(0.01, 0.0, 0.0, 0.0, 0.01, 0.0, 0.0, 0.0, 0.01)"
2025/06/01/05:05:37.706001,42,1748754337,705556768,imu_link,-0.026082525261705614,0.02156601855916867,-0.6520174011561904,0.7574482934887407,"(0.001, 0.0, 0.0, 0.0, 0.001, 0.0, 0.0, 0.0, 0.001)",0.0,0.0,0.0,"(1e-05, 0.0, 0.0, 0.0, 1e-05, 0.0, 0.0, 0.0, 1e-05)",0.0,-0.669921875,9.771289062500001,"(0.01, 0.0, 0.0, 0.0, 0.01, 0.0, 0.0, 0.0, 0.01)"
2025/06/01/05:05:37.756392,43,1748754337,756005431,imu_link,-0.026082525261705614,0.02156601855916867,-0.6520174011561904,0.7574482934887407,"(0.001, 0.0, 0.0, 0.0, 0.001, 0.0, 0.0, 0.0, 0.001)",0.0,0.0,0.0,"(1e-05, 0.0, 0.0, 0.0, 1e-05, 0.0, 0.0, 0.0, 1e-05)",0.0,-0.669921875,9.77607421875,"(0.01, 0.0, 0.0, 0.0, 0.01, 0.0, 0.0, 0.0, 0.01)"
2025/06/01/05:05:37.796526,44,1748754337,796149968,imu_link,-0.026082525261705614,0.02156601855916867,-0.6520174011561904,0.7574482934887407,"(0.001, 0.0, 0.0, 0.0, 0.001, 0.0, 0.0, 0.0, 0.001)",0.0,0.0,0.0,"(1e-05, 0.0, 0.0, 0.0, 1e-05, 0.0, 0.0, 0.0, 1e-05)",0.0,-0.669921875,9.77607421875,"(0.01, 0.0, 0.0, 0.0, 0.01, 0.0, 0.0, 0.0, 0.01)"
2025/06/01/05:05:37.806636,45,1748754337,806210427,imu_link,-0.026082525261705614,0.02156601855916867,-0.6520174011561904,0.7574482934887407,"(0.001, 0.0, 0.0, 0.0, 0.001, 0.0, 0.0, 0.0, 0.001)",0.0,0.0,0.0,"(1e-05, 0.0, 0.0, 0.0, 1e-05, 0.0, 0.0, 0.0, 1e-05)",0.0095703125,-0.6747070312500001,9.77607421875,"(0.01, 0.0, 0.0, 0.0, 0.01, 0.0, 0.0, 0.0, 0.01)"
2025/06/01/05:05:37.856884,46,1748754337,856447621,imu_link,-0.026082525261705614,0.02156601855916867,-0.6520174011561904,0.7574482934887407,"(0.001, 0.0, 0.0, 0.0, 0.001, 0.0, 0.0, 0.0, 0.001)",0.0,0.0,0.0,"(1e-05, 0.0, 0.0, 0.0, 1e-05, 0.0, 0.0, 0.0, 1e-05)",0.019140625,-0.66513671875,9.78564453125,"(0.01, 0.0, 0.0, 0.0, 0.01, 0.0, 0.0, 0.0, 0.01)"
2025/06/01/05:05:37.896608,47,1748754337,896154001,imu_link,-0.026082525261705614,0.02156601855916867,-0.6520174011561904,0.7574482934887407,"(0.001, 0.0, 0.0, 0.0, 0.001, 0.0, 0.0, 0.0, 0.001)",0.0,0.0,0.0,"(1e-05, 0.0, 0.0, 0.0, 1e-05, 0.0, 0.0, 0.0, 1e-05)",0.019140625,-0.66513671875,9.78564453125,"(0.01, 0.0, 0.0, 0.0, 0.01, 0.0, 0.0, 0.0, 0.01)"
2025/06/01/05:05:37.906930,48,1748754337,906549577,imu_link,-0.026082525261705614,0.02156601855916867,-0.6520174011561904,0.7574482934887407,"(0.001, 0.0, 0.0, 0.0, 0.001, 0.0, 0.0, 0.0, 0.001)",0.0,0.0,0.0,"(1e-05, 0.0, 0.0, 0.0, 1e-05, 0.0, 0.0, 0.0, 1e-05)",0.00478515625,-0.6603515625,9.771289062500001,"(0.01, 0.0, 0.0, 0.0, 0.01, 0.0, 0.0, 0.0, 0.01)"
2025/06/01/05:05:37.957184,49,1748754337,956756927,imu_link,-0.026082525261705614,0.02156601855916867,-0.6520174011561904,0.7574482934887407,"(0.001, 0.0, 0.0, 0.0, 0.001, 0.0, 0.0, 0.0, 0.001)",0.0,0.0,0.0,"(1e-05, 0.0, 0.0, 0.0, 1e-05, 0.0, 0.0, 0.0, 1e-05)",0.0,-0.6747070312500001,9.780859375,"(0.01, 0.0, 0.0, 0.0, 0.01, 0.0, 0.0, 0.0, 0.01)"
2025/06/01/05:05:37.996585,50,1748754337,996153266,imu_link,-0.026082525261705614,0.02156601855916867,-0.6520174011561904,0.7574482934887407,"(0.001, 0.0, 0.0, 0.0, 0.001, 0.0, 0.0, 0.0, 0.001)",0.0,0.0,0.0,"(1e-05, 0.0, 0.0, 0.0, 1e-05, 0.0, 0.0, 0.0, 1e-05)",0.0,-0.6747070312500001,9.780859375,"(0.01, 0.0, 0.0, 0.0, 0.01, 0.0, 0.0, 0.0, 0.01)"
2025/06/01/05:05:38.007646,51,1748754338,7262528,imu_link,-0.026082525261705614,0.02156601855916867,-0.6520174011561904,0.7574482934887407,"(0.001, 0.0, 0.0, 0.0, 0.001, 0.0, 0.0, 0.0, 0.001)",0.0,0.0,0.0,"(1e-05, 0.0, 0.0, 0.0, 1e-05, 0.0, 0.0, 0.0, 1e-05)",0.00478515625,-0.6794921875000001,9.78564453125,"(0.01, 0.0, 0.0, 0.0, 0.01, 0.0, 0.0, 0.0, 0.01)"
2025/06/01/05:05:38.057448,52,1748754338,57113076,imu_link,-0.026082525261705614,0.02156601855916867,-0.6520174011561904,0.7574482934887407,"(0.001, 0.0, 0.0, 0.0, 0.001, 0.0, 0.0, 0.0, 0.001)",0.0,0.0,0.0,"(1e-05, 0.0, 0.0, 0.0, 1e-05, 0.0, 0.0, 0.0, 1e-05)",0.0,-0.66513671875,9.766503906250001,"(0.01, 0.0, 0.0, 0.0, 0.01, 0.0, 0.0, 0.0, 0.01)"
2025/06/01/05:05:38.096473,53,1748754338,96133475,imu_link,-0.026082525261705614,0.02156601855916867,-0.6520174011561904,0.7574482934887407,"(0.001, 0.0, 0.0, 0.0, 0.001, 0.0, 0.0, 0.0, 0.001)",0.0,0.0,0.0,"(1e-05, 0.0, 0.0, 0.0, 1e-05, 0.0, 0.0, 0.0, 1e-05)",0.0,-0.66513671875,9.766503906250001,"(0.01, 0.0, 0.0, 0.0, 0.01, 0.0, 0.0, 0.0, 0.01)"
2025/06/01/05:05:38.107682,54,1748754338,107351028,imu_link,-0.026082525261705614,0.02156601855916867,-0.6520174011561904,0.7574482934887407,"(0.001, 0.0, 0.0, 0.0, 0.001, 0.0, 0.0, 0.0, 0.001)",0.0,0.0,0.0,"(1e-05, 0.0, 0.0, 0.0, 1e-05, 0.0, 0.0, 0.0, 1e-05)",0.0,-0.6747070312500001,9.780859375,"(0.01, 0.0, 0.0, 0.0, 0.01, 0.0, 0.0, 0.0, 0.01)"
2025/06/01/05:05:38.157861,55,1748754338,157517368,imu_link,-0.026082525261705614,0.02156601855916867,-0.6520174011561904,0.7574482934887407,"(0.001, 0.0, 0.0, 0.0, 0.001, 0.0, 0.0, 0.0, 0.001)",0.0,0.0,0.0,"(1e-05, 0.0, 0.0, 0.0, 1e-05, 0.0, 0.0, 0.0, 1e-05)",0.0,-0.669921875,9.780859375,"(0.01, 0.0, 0.0, 0.0, 0.01, 0.0, 0.0, 0.0, 0.01)"
2025/06/01/05:05:38.196502,56,1748754338,196135166,imu_link,-0.026082525261705614,0.02156601855916867,-0.6520174011561904,0.7574482934887407,"(0.001, 0.0, 0.0, 0.0, 0.001, 0.0, 0.0, 0.0, 0.001)",0.0,0.0,0.0,"(1e-05, 0.0, 0.0, 0.0, 1e-05, 0.0, 0.0, 0.0, 1e-05)",0.0,-0.669921875,9.780859375,"(0.01, 0.0, 0.0, 0.0, 0.01, 0.0, 0.0, 0.0, 0.01)"
2025/06/01/05:05:38.208133,57,1748754338,207806333,imu_link,-0.026082525261705614,0.02156601855916867,-0.6520174011561904,0.7574482934887407,"(0.001, 0.0, 0.0, 0.0, 0.001, 0.0, 0.0, 0.0, 0.001)",0.0,0.0,0.0,"(1e-05, 0.0, 0.0, 0.0, 1e-05, 0.0, 0.0, 0.0, 1e-05)",0.00478515625,-0.66513671875,9.771289062500001,"(0.01, 0.0, 0.0, 0.0, 0.01, 0.0, 0.0, 0.0, 0.01)"
2025/06/01/05:05:38.258328,58,1748754338,258094668,imu_link,-0.026082525261705614,0.02156601855916867,-0.6520174011561904,0.7574482934887407,"(0.001, 0.0, 0.0, 0.0, 0.001, 0.0, 0.0, 0.0, 0.001)",0.0,0.0,0.0,"(1e-05, 0.0, 0.0, 0.0, 1e-05, 0.0, 0.0, 0.0, 1e-05)",0.0095703125,-0.669921875,9.771289062500001,"(0.01, 0.0, 0.0, 0.0, 0.01, 0.0, 0.0, 0.0, 0.01)"
2025/06/01/05:05:38.296580,59,1748754338,296167713,imu_link,-0.026051271189632758,0.02160232967688992,-0.6520161920429921,0.7574493751635757,"(0.001, 0.0, 0.0, 0.0, 0.001, 0.0, 0.0, 0.0, 0.001)",0.0,0.0,0.0,"(1e-05, 0.0, 0.0, 0.0, 1e-05, 0.0, 0.0, 0.0, 1e-05)",0.0095703125,-0.669921875,9.771289062500001,"(0.01, 0.0, 0.0, 0.0, 0.01, 0.0, 0.0, 0.0, 0.01)"
2025/06/01/05:05:38.308942,60,1748754338,308473008,imu_link,-0.026051271189632758,0.02160232967688992,-0.6520161920429921,0.7574493751635757,"(0.001, 0.0, 0.0, 0.0, 0.001, 0.0, 0.0, 0.0, 0.001)",0.0,0.0,0.0,"(1e-05, 0.0, 0.0, 0.0, 1e-05, 0.0, 0.0, 0.0, 1e-05)",0.0,-0.669921875,9.77607421875,"(0.01, 0.0, 0.0, 0.0, 0.01, 0.0, 0.0, 0.0, 0.01)"
2025/06/01/05:05:38.358923,61,1748754338,358607349,imu_link,-0.026082525261705614,0.02156601855916867,-0.6520174011561904,0.7574482934887407,"(0.001, 0.0, 0.0, 0.0, 0.001, 0.0, 0.0, 0.0, 0.001)",0.0,0.0,0.0,"(1e-05, 0.0, 0.0, 0.0, 1e-05, 0.0, 0.0, 0.0, 1e-05)",0.0,-0.6747070312500001,9.780859375,"(0.01, 0.0, 0.0, 0.0, 0.01, 0.0, 0.0, 0.0, 0.01)"
2025/06/01/05:05:38.396561,62,1748754338,396146651,imu_link,-0.026082525261705614,0.02156601855916867,-0.6520174011561904,0.7574482934887407,"(0.001, 0.0, 0.0, 0.0, 0.001, 0.0, 0.0, 0.0, 0.001)",0.0,0.0,0.0,"(1e-05, 0.0, 0.0, 0.0, 1e-05, 0.0, 0.0, 0.0, 1e-05)",0.0,-0.6747070312500001,9.780859375,"(0.01, 0.0, 0.0, 0.0, 0.01, 0.0, 0.0, 0.0, 0.01)"
2025/06/01/05:05:38.409424,63,1748754338,408999144,imu_link,-0.026082525261705614,0.02156601855916867,-0.6520174011561904,0.7574482934887407,"(0.001, 0.0, 0.0, 0.0, 0.001, 0.0, 0.0, 0.0, 0.001)",0.0,0.0,0.0,"(1e-05, 0.0, 0.0, 0.0, 1e-05, 0.0, 0.0, 0.0, 1e-05)",0.0,-0.6747070312500001,9.77607421875,"(0.01, 0.0, 0.0, 0.0, 0.01, 0.0, 0.0, 0.0, 0.01)"
2025/06/01/05:05:38.459626,64,1748754338,459230453,imu_link,-0.026082525261705614,0.02156601855916867,-0.6520174011561904,0.7574482934887407,"(0.001, 0.0, 0.0, 0.0, 0.001, 0.0, 0.0, 0.0, 0.001)",0.0,0.0,0.0,"(1e-05, 0.0, 0.0, 0.0, 1e-05, 0.0, 0.0, 0.0, 1e-05)",0.00478515625,-0.66513671875,9.77607421875,"(0.01, 0.0, 0.0, 0.0, 0.01, 0.0, 0.0, 0.0, 0.01)"
2025/06/01/05:05:38.496869,65,1748754338,496373606,imu_link,-0.026118834953917595,0.0215972742265554,-0.6520163665989912,0.7574470423030794,"(0.001, 0.0, 0.0, 0.0, 0.001, 0.0, 0.0, 0.0, 0.001)",0.0,0.0,0.0,"(1e-05, 0.0, 0.0, 0.0, 1e-05, 0.0, 0.0, 0.0, 1e-05)",0.00478515625,-0.66513671875,9.77607421875,"(0.01, 0.0, 0.0, 0.0, 0.01, 0.0, 0.0, 0.0, 0.01)"
2025/06/01/05:05:38.509806,66,1748754338,509408825,imu_link,-0.026118834953917595,0.0215972742265554,-0.6520163665989912,0.7574470423030794,"(0.001, 0.0, 0.0, 0.0, 0.001, 0.0, 0.0, 0.0, 0.001)",0.0,0.0,0.0,"(1e-05, 0.0, 0.0, 0.0, 1e-05, 0.0, 0.0, 0.0, 1e-05)",0.00478515625,-0.669921875,9.77607421875,"(0.01, 0.0, 0.0, 0.0, 0.01, 0.0, 0.0, 0.0, 0.01)"
2025/06/01/05:05:38.560230,67,1748754338,559751249,imu_link,-0.026118834953917595,0.0215972742265554,-0.6520163665989912,0.7574470423030794,"(0.001, 0.0, 0.0, 0.0, 0.001, 0.0, 0.0, 0.0, 0.001)",0.0,0.0,0.0,"(1e-05, 0.0, 0.0, 0.0, 1e-05, 0.0, 0.0, 0.0, 1e-05)",0.0,-0.66513671875,9.77607421875,"(0.01, 0.0, 0.0, 0.0, 0.01, 0.0, 0.0, 0.0, 0.01)"
2025/06/01/05:05:38.596569,68,1748754338,596149561,imu_link,-0.026118834953917595,0.0215972742265554,-0.6520163665989912,0.7574470423030794,"(0.001, 0.0, 0.0, 0.0, 0.001, 0.0, 0.0, 0.0, 0.001)",0.0,0.0,0.0,"(1e-05, 0.0, 0.0, 0.0, 1e-05, 0.0, 0.0, 0.0, 1e-05)",0.0,-0.66513671875,9.77607421875,"(0.01, 0.0, 0.0, 0.0, 0.01, 0.0, 0.0, 0.0, 0.01)"
2025/06/01/05:05:38.610341,69,1748754338,609896390,imu_link,-0.026118834953917595,0.0215972742265554,-0.6520163665989912,0.7574470423030794,"(0.001, 0.0, 0.0, 0.0, 0.001, 0.0, 0.0, 0.0, 0.001)",0.0,0.0,0.0,"(1e-05, 0.0, 0.0, 0.0, 1e-05, 0.0, 0.0, 0.0, 1e-05)",0.00478515625,-0.669921875,9.77607421875,"(0.01, 0.0, 0.0, 0.0, 0.01, 0.0, 0.0, 0.0, 0.01)"
2025/06/01/05:05:38.660883,70,1748754338,660308492,imu_link,-0.026118834953917595,0.0215972742265554,-0.6520163665989912,0.7574470423030794,"(0.001, 0.0, 0.0, 0.0, 0.001, 0.0, 0.0, 0.0, 0.001)",0.0,0.0,0.0,"(1e-05, 0.0, 0.0, 0.0, 1e-05, 0.0, 0.0, 0.0, 1e-05)",0.0,-0.669921875,9.771289062500001,"(0.01, 0.0, 0.0, 0.0, 0.01, 0.0, 0.0, 0.0, 0.01)"
2025/06/01/05:05:38.696627,71,1748754338,696178852,imu_link,-0.026118834953917595,0.0215972742265554,-0.6520163665989912,0.7574470423030794,"(0.001, 0.0, 0.0, 0.0, 0.001, 0.0, 0.0, 0.0, 0.001)",0.0,0.0,0.0,"(1e-05, 0.0, 0.0, 0.0, 1e-05, 0.0, 0.0, 0.0, 1e-05)",0.0,-0.669921875,9.771289062500001,"(0.01, 0.0, 0.0, 0.0, 0.01, 0.0, 0.0, 0.0, 0.01)"
2025/06/01/05:05:38.710805,72,1748754338,710389365,imu_link,-0.026118834953917595,0.0215972742265554,-0.6520163665989912,0.7574470423030794,"(0.001, 0.0, 0.0, 0.0, 0.001, 0.0, 0.0, 0.0, 0.001)",0.0,0.0,0.0,"(1e-05, 0.0, 0.0, 0.0, 1e-05, 0.0, 0.0, 0.0, 1e-05)",0.0,-0.669921875,9.77607421875,"(0.01, 0.0, 0.0, 0.0, 0.01, 0.0, 0.0, 0.0, 0.01)"
2025/06/01/05:05:38.761147,73,1748754338,760699750,imu_link,-0.026118834953917595,0.0215972742265554,-0.6520163665989912,0.7574470423030794,"(0.001, 0.0, 0.0, 0.0, 0.001, 0.0, 0.0, 0.0, 0.001)",0.0,0.0,0.0,"(1e-05, 0.0, 0.0, 0.0, 1e-05, 0.0, 0.0, 0.0, 1e-05)",0.0,-0.669921875,9.77607421875,"(0.01, 0.0, 0.0, 0.0, 0.01, 0.0, 0.0, 0.0, 0.01)"
2025/06/01/05:05:38.796693,74,1748754338,796158442,imu_link,-0.026087580933732785,0.021633585286273797,-0.6520151557451517,0.7574481254761364,"(0.001, 0.0, 0.0, 0.0, 0.001, 0.0, 0.0, 0.0, 0.001)",0.0,0.0,0.0,"(1e-05, 0.0, 0.0, 0.0, 1e-05, 0.0, 0.0, 0.0, 1e-05)",0.0,-0.669921875,9.77607421875,"(0.01, 0.0, 0.0, 0.0, 0.01, 0.0, 0.0, 0.0, 0.01)"
2025/06/01/05:05:38.811445,75,1748754338,811011868,imu_link,-0.026087580933732785,0.021633585286273797,-0.6520151557451517,0.7574481254761364,"(0.001, 0.0, 0.0, 0.0, 0.001, 0.0, 0.0, 0.0, 0.001)",0.0,0.0,0.0,"(1e-05, 0.0, 0.0, 0.0, 1e-05, 0.0, 0.0, 0.0, 1e-05)",0.00478515625,-0.669921875,9.77607421875,"(0.01, 0.0, 0.0, 0.0, 0.01, 0.0, 0.0, 0.0, 0.01)"
2025/06/01/05:05:38.861580,76,1748754338,861116354,imu_link,-0.026087580933732785,0.021633585286273797,-0.6520151557451517,0.7574481254761364,"(0.001, 0.0, 0.0, 0.0, 0.001, 0.0, 0.0, 0.0, 0.001)",0.0,0.0,0.0,"(1e-05, 0.0, 0.0, 0.0, 1e-05, 0.0, 0.0, 0.0, 1e-05)",0.0,-0.669921875,9.771289062500001,"(0.01, 0.0, 0.0, 0.0, 0.01, 0.0, 0.0, 0.0, 0.01)"
2025/06/01/05:05:38.896926,77,1748754338,896361884,imu_link,-0.026087580933732785,0.021633585286273797,-0.6520151557451517,0.7574481254761364,"(0.001, 0.0, 0.0, 0.0, 0.001, 0.0, 0.0, 0.0, 0.001)",0.0,0.0,0.0,"(1e-05, 0.0, 0.0, 0.0, 1e-05, 0.0, 0.0, 0.0, 1e-05)",0.0,-0.669921875,9.771289062500001,"(0.01, 0.0, 0.0, 0.0, 0.01, 0.0, 0.0, 0.0, 0.01)"
2025/06/01/05:05:38.912122,78,1748754338,911629643,imu_link,-0.026087580933732785,0.021633585286273797,-0.6520151557451517,0.7574481254761364,"(0.001, 0.0, 0.0, 0.0, 0.001, 0.0, 0.0, 0.0, 0.001)",0.0,0.0,0.0,"(1e-05, 0.0, 0.0, 0.0, 1e-05, 0.0, 0.0, 0.0, 1e-05)",0.0,-0.66513671875,9.77607421875,"(0.01, 0.0, 0.0, 0.0, 0.01, 0.0, 0.0, 0.0, 0.01)"
2025/06/01/05:05:38.962106,79,1748754338,961642860,imu_link,-0.026087580933732785,0.021633585286273797,-0.6520151557451517,0.7574481254761364,"(0.001, 0.0, 0.0, 0.0, 0.001, 0.0, 0.0, 0.0, 0.001)",0.0,0.0,0.0,"(1e-05, 0.0, 0.0, 0.0, 1e-05, 0.0, 0.0, 0.0, 1e-05)",0.0,-0.669921875,9.77607421875,"(0.01, 0.0, 0.0, 0.0, 0.01, 0.0, 0.0, 0.0, 0.01)"
2025/06/01/05:05:38.996855,80,1748754338,996341864,imu_link,-0.026087580933732785,0.021633585286273797,-0.6520151557451517,0.7574481254761364,"(0.001, 0.0, 0.0, 0.0, 0.001, 0.0, 0.0, 0.0, 0.001)",0.0,0.0,0.0,"(1e-05, 0.0, 0.0, 0.0, 1e-05, 0.0, 0.0, 0.0, 1e-05)",0.0,-0.669921875,9.77607421875,"(0.01, 0.0, 0.0, 0.0, 0.01, 0.0, 0.0, 0.0, 0.01)"
2025/06/01/05:05:39.012299,81,1748754339,11857793,imu_link,-0.026087580933732785,0.021633585286273797,-0.6520151557451517,0.7574481254761364,"(0.001, 0.0, 0.0, 0.0, 0.001, 0.0, 0.0, 0.0, 0.001)",0.0,0.0,0.0,"(1e-05, 0.0, 0.0, 0.0, 1e-05, 0.0, 0.0, 0.0, 1e-05)",0.0,-0.669921875,9.77607421875,"(0.01, 0.0, 0.0, 0.0, 0.01, 0.0, 0.0, 0.0, 0.01)"
2025/06/01/05:05:39.062892,82,1748754339,62403296,imu_link,-0.026087580933732785,0.021633585286273797,-0.6520151557451517,0.7574481254761364,"(0.001, 0.0, 0.0, 0.0, 0.001, 0.0, 0.0, 0.0, 0.001)",0.0,0.0,0.0,"(1e-05, 0.0, 0.0, 0.0, 1e-05, 0.0, 0.0, 0.0, 1e-05)",0.0,-0.66513671875,9.77607421875,"(0.01, 0.0, 0.0, 0.0, 0.01, 0.0, 0.0, 0.0, 0.01)"
2025/06/01/05:05:39.096615,83,1748754339,96169453,imu_link,-0.026087580933732785,0.021633585286273797,-0.6520151557451517,0.7574481254761364,"(0.001, 0.0, 0.0, 0.0, 0.001, 0.0, 0.0, 0.0, 0.001)",0.0,0.0,0.0,"(1e-05, 0.0, 0.0, 0.0, 1e-05, 0.0, 0.0, 0.0, 1e-05)",0.0,-0.66513671875,9.77607421875,"(0.01, 0.0, 0.0, 0.0, 0.01, 0.0, 0.0, 0.0, 0.01)"
2025/06/01/05:05:39.112841,84,1748754339,112371466,imu_link,-0.026087580933732785,0.021633585286273797,-0.6520151557451517,0.7574481254761364,"(0.001, 0.0, 0.0, 0.0, 0.001, 0.0, 0.0, 0.0, 0.001)",0.0,0.0,0.0,"(1e-05, 0.0, 0.0, 0.0, 1e-05, 0.0, 0.0, 0.0, 1e-05)",0.00478515625,-0.669921875,9.75693359375,"(0.01, 0.0, 0.0, 0.0, 0.01, 0.0, 0.0, 0.0, 0.01)"
2025/06/01/05:05:39.163260,85,1748754339,162773335,imu_link,-0.026051271189632758,0.02160232967688992,-0.6520161920429921,0.7574493751635757,"(0.001, 0.0, 0.0, 0.0, 0.001, 0.0, 0.0, 0.0, 0.001)",0.0,0.0,0.0,"(1e-05, 0.0, 0.0, 0.0, 1e-05, 0.0, 0.0, 0.0, 1e-05)",0.00478515625,-0.6794921875000001,9.790429687500001,"(0.01, 0.0, 0.0, 0.0, 0.01, 0.0, 0.0, 0.0, 0.01)"
2025/06/01/05:05:39.196578,86,1748754339,196157378,imu_link,-0.026051271189632758,0.02160232967688992,-0.6520161920429921,0.7574493751635757,"(0.001, 0.0, 0.0, 0.0, 0.001, 0.0, 0.0, 0.0, 0.001)",0.0,0.0,0.0,"(1e-05, 0.0, 0.0, 0.0, 1e-05, 0.0, 0.0, 0.0, 1e-05)",0.00478515625,-0.6794921875000001,9.790429687500001,"(0.01, 0.0, 0.0, 0.0, 0.01, 0.0, 0.0, 0.0, 0.01)"
2025/06/01/05:05:39.213281,87,1748754339,212870643,imu_link,-0.026051271189632758,0.02160232967688992,-0.6520161920429921,0.7574493751635757,"(0.001, 0.0, 0.0, 0.0, 0.001, 0.0, 0.0, 0.0, 0.001)",0.0,0.0,0.0,"(1e-05, 0.0, 0.0, 0.0, 1e-05, 0.0, 0.0, 0.0, 1e-05)",0.0,-0.66513671875,9.76171875,"(0.01, 0.0, 0.0, 0.0, 0.01, 0.0, 0.0, 0.0, 0.01)"
2025/06/01/05:05:39.263551,88,1748754339,263017373,imu_link,-0.026082525261705614,0.02156601855916867,-0.6520174011561904,0.7574482934887407,"(0.001, 0.0, 0.0, 0.0, 0.001, 0.0, 0.0, 0.0, 0.001)",0.0,0.0,0.0,"(1e-05, 0.0, 0.0, 0.0, 1e-05, 0.0, 0.0, 0.0, 1e-05)",0.0,-0.66513671875,9.780859375,"(0.01, 0.0, 0.0, 0.0, 0.01, 0.0, 0.0, 0.0, 0.01)"
2025/06/01/05:05:39.296724,89,1748754339,296215423,imu_link,-0.026051271189632758,0.02160232967688992,-0.6520161920429921,0.7574493751635757,"(0.001, 0.0, 0.0, 0.0, 0.001, 0.0, 0.0, 0.0, 0.001)",0.0,0.0,0.0,"(1e-05, 0.0, 0.0, 0.0, 1e-05, 0.0, 0.0, 0.0, 1e-05)",0.0,-0.66513671875,9.780859375,"(0.01, 0.0, 0.0, 0.0, 0.01, 0.0, 0.0, 0.0, 0.01)"
2025/06/01/05:05:39.313730,90,1748754339,313316803,imu_link,-0.026051271189632758,0.02160232967688992,-0.6520161920429921,0.7574493751635757,"(0.001, 0.0, 0.0, 0.0, 0.001, 0.0, 0.0, 0.0, 0.001)",0.0,0.0,0.0,"(1e-05, 0.0, 0.0, 0.0, 1e-05, 0.0, 0.0, 0.0, 1e-05)",0.00478515625,-0.6794921875000001,9.780859375,"(0.01, 0.0, 0.0, 0.0, 0.01, 0.0, 0.0, 0.0, 0.01)"
2025/06/01/05:05:39.364139,91,1748754339,363742827,imu_link,-0.026051271189632758,0.02160232967688992,-0.6520161920429921,0.7574493751635757,"(0.001, 0.0, 0.0, 0.0, 0.001, 0.0, 0.0, 0.0, 0.001)",0.0,0.0,0.0,"(1e-05, 0.0, 0.0, 0.0, 1e-05, 0.0, 0.0, 0.0, 1e-05)",0.0,-0.6603515625,9.771289062500001,"(0.01, 0.0, 0.0, 0.0, 0.01, 0.0, 0.0, 0.0, 0.01)"
2025/06/01/05:05:39.396889,92,1748754339,396333589,imu_link,-0.026087580933732785,0.021633585286273797,-0.6520151557451517,0.7574481254761364,"(0.001, 0.0, 0.0, 0.0, 0.001, 0.0, 0.0, 0.0, 0.001)",0.0,0.0,0.0,"(1e-05, 0.0, 0.0, 0.0, 1e-05, 0.0, 0.0, 0.0, 1e-05)",0.0,-0.6603515625,9.771289062500001,"(0.01, 0.0, 0.0, 0.0, 0.01, 0.0, 0.0, 0.0, 0.01)"
2025/06/01/05:05:39.414219,93,1748754339,413777630,imu_link,-0.026087580933732785,0.021633585286273797,-0.6520151557451517,0.7574481254761364,"(0.001, 0.0, 0.0, 0.0, 0.001, 0.0, 0.0, 0.0, 0.001)",0.0,0.0,0.0,"(1e-05, 0.0, 0.0, 0.0, 1e-05, 0.0, 0.0, 0.0, 1e-05)",0.00478515625,-0.6747070312500001,9.77607421875,"(0.01, 0.0, 0.0, 0.0, 0.01, 0.0, 0.0, 0.0, 0.01)"
2025/06/01/05:05:39.464615,94,1748754339,464181583,imu_link,-0.026087580933732785,0.021633585286273797,-0.6520151557451517,0.7574481254761364,"(0.001, 0.0, 0.0, 0.0, 0.001, 0.0, 0.0, 0.0, 0.001)",0.0,0.0,0.0,"(1e-05, 0.0, 0.0, 0.0, 1e-05, 0.0, 0.0, 0.0, 1e-05)",0.00478515625,-0.6747070312500001,9.780859375,"(0.01, 0.0, 0.0, 0.0, 0.01, 0.0, 0.0, 0.0, 0.01)"
2025/06/01/05:05:39.496938,95,1748754339,496354555,imu_link,-0.026087580933732785,0.021633585286273797,-0.6520151557451517,0.7574481254761364,"(0.001, 0.0, 0.0, 0.0, 0.001, 0.0, 0.0, 0.0, 0.001)",0.0,0.0,0.0,"(1e-05, 0.0, 0.0, 0.0, 1e-05, 0.0, 0.0, 0.0, 1e-05)",0.00478515625,-0.6747070312500001,9.780859375,"(0.01, 0.0, 0.0, 0.0, 0.01, 0.0, 0.0, 0.0, 0.01)"
2025/06/01/05:05:39.514682,96,1748754339,514268441,imu_link,-0.026087580933732785,0.021633585286273797,-0.6520151557451517,0.7574481254761364,"(0.001, 0.0, 0.0, 0.0, 0.001, 0.0, 0.0, 0.0, 0.001)",0.0,0.0,0.0,"(1e-05, 0.0, 0.0, 0.0, 1e-05, 0.0, 0.0, 0.0, 1e-05)",0.0,-0.6603515625,9.766503906250001,"(0.01, 0.0, 0.0, 0.0, 0.01, 0.0, 0.0, 0.0, 0.01)"
2025/06/01/05:05:39.564979,97,1748754339,564546262,imu_link,-0.026087580933732785,0.021633585286273797,-0.6520151557451517,0.7574481254761364,"(0.001, 0.0, 0.0, 0.0, 0.001, 0.0, 0.0, 0.0, 0.001)",0.0,0.0,0.0,"(1e-05, 0.0, 0.0, 0.0, 1e-05, 0.0, 0.0, 0.0, 1e-05)",0.00478515625,-0.669921875,9.77607421875,"(0.01, 0.0, 0.0, 0.0, 0.01, 0.0, 0.0, 0.0, 0.01)"
2025/06/01/05:05:39.596837,98,1748754339,596334026,imu_link,-0.026087580933732785,0.021633585286273797,-0.6520151557451517,0.7574481254761364,"(0.001, 0.0, 0.0, 0.0, 0.001, 0.0, 0.0, 0.0, 0.001)",0.0,0.0,0.0,"(1e-05, 0.0, 0.0, 0.0, 1e-05, 0.0, 0.0, 0.0, 1e-05)",0.00478515625,-0.669921875,9.77607421875,"(0.01, 0.0, 0.0, 0.0, 0.01, 0.0, 0.0, 0.0, 0.01)"
2025/06/01/05:05:39.615429,99,1748754339,614972295,imu_link,-0.026087580933732785,0.021633585286273797,-0.6520151557451517,0.7574481254761364,"(0.001, 0.0, 0.0, 0.0, 0.001, 0.0, 0.0, 0.0, 0.001)",0.0,0.0,0.0,"(1e-05, 0.0, 0.0, 0.0, 1e-05, 0.0, 0.0, 0.0, 1e-05)",0.0,-0.6747070312500001,9.780859375,"(0.01, 0.0, 0.0, 0.0, 0.01, 0.0, 0.0, 0.0, 0.01)"
2025/06/01/05:05:39.665563,100,1748754339,665126028,imu_link,-0.026087580933732785,0.021633585286273797,-0.6520151557451517,0.7574481254761364,"(0.001, 0.0, 0.0, 0.0, 0.001, 0.0, 0.0, 0.0, 0.001)",0.0,0.0,0.0,"(1e-05, 0.0, 0.0, 0.0, 1e-05, 0.0, 0.0, 0.0, 1e-05)",0.0,-0.669921875,9.77607421875,"(0.01, 0.0, 0.0, 0.0, 0.01, 0.0, 0.0, 0.0, 0.01)"
2025/06/01/05:05:39.696856,101,1748754339,696337800,imu_link,-0.026087580933732785,0.021633585286273797,-0.6520151557451517,0.7574481254761364,"(0.001, 0.0, 0.0, 0.0, 0.001, 0.0, 0.0, 0.0, 0.001)",0.0,0.0,0.0,"(1e-05, 0.0, 0.0, 0.0, 1e-05, 0.0, 0.0, 0.0, 1e-05)",0.0,-0.669921875,9.77607421875,"(0.01, 0.0, 0.0, 0.0, 0.01, 0.0, 0.0, 0.0, 0.01)"
2025/06/01/05:05:39.715557,102,1748754339,715348947,imu_link,-0.026087580933732785,0.021633585286273797,-0.6520151557451517,0.7574481254761364,"(0.001, 0.0, 0.0, 0.0, 0.001, 0.0, 0.0, 0.0, 0.001)",0.0,0.0,0.0,"(1e-05, 0.0, 0.0, 0.0, 1e-05, 0.0, 0.0, 0.0, 1e-05)",0.00478515625,-0.669921875,9.77607421875,"(0.01, 0.0, 0.0, 0.0, 0.01, 0.0, 0.0, 0.0, 0.01)"
2025/06/01/05:05:39.765887,103,1748754339,765477041,imu_link,-0.026087580933732785,0.021633585286273797,-0.6520151557451517,0.7574481254761364,"(0.001, 0.0, 0.0, 0.0, 0.001, 0.0, 0.0, 0.0, 0.001)",0.0,0.0,0.0,"(1e-05, 0.0, 0.0, 0.0, 1e-05, 0.0, 0.0, 0.0, 1e-05)",0.00478515625,-0.66513671875,9.771289062500001,"(0.01, 0.0, 0.0, 0.0, 0.01, 0.0, 0.0, 0.0, 0.01)"
2025/06/01/05:05:39.796682,104,1748754339,796197329,imu_link,-0.026087580933732785,0.021633585286273797,-0.6520151557451517,0.7574481254761364,"(0.001, 0.0, 0.0, 0.0, 0.001, 0.0, 0.0, 0.0, 0.001)",0.0,0.0,0.0,"(1e-05, 0.0, 0.0, 0.0, 1e-05, 0.0, 0.0, 0.0, 1e-05)",0.00478515625,-0.66513671875,9.771289062500001,"(0.01, 0.0, 0.0, 0.0, 0.01, 0.0, 0.0, 0.0, 0.01)"
2025/06/01/05:05:39.816252,105,1748754339,815823378,imu_link,-0.026087580933732785,0.021633585286273797,-0.6520151557451517,0.7574481254761364,"(0.001, 0.0, 0.0, 0.0, 0.001, 0.0, 0.0, 0.0, 0.001)",0.0,0.0,0.0,"(1e-05, 0.0, 0.0, 0.0, 1e-05, 0.0, 0.0, 0.0, 1e-05)",0.0,-0.66513671875,9.77607421875,"(0.01, 0.0, 0.0, 0.0, 0.01, 0.0, 0.0, 0.0, 0.01)"
2025/06/01/05:05:39.866359,106,1748754339,865974485,imu_link,-0.026082525261705614,0.02156601855916867,-0.6520174011561904,0.7574482934887407,"(0.001, 0.0, 0.0, 0.0, 0.001, 0.0, 0.0, 0.0, 0.001)",0.0,0.0,0.0,"(1e-05, 0.0, 0.0, 0.0, 1e-05, 0.0, 0.0, 0.0, 1e-05)",0.00478515625,-0.669921875,9.77607421875,"(0.01, 0.0, 0.0, 0.0, 0.01, 0.0, 0.0, 0.0, 0.01)"
2025/06/01/05:05:39.896865,107,1748754339,896355308,imu_link,-0.026051271189632758,0.02160232967688992,-0.6520161920429921,0.7574493751635757,"(0.001, 0.0, 0.0, 0.0, 0.001, 0.0, 0.0, 0.0, 0.001)",0.0,0.0,0.0,"(1e-05, 0.0, 0.0, 0.0, 1e-05, 0.0, 0.0, 0.0, 1e-05)",0.00478515625,-0.669921875,9.77607421875,"(0.01, 0.0, 0.0, 0.0, 0.01, 0.0, 0.0, 0.0, 0.01)"
2025/06/01/05:05:39.916745,108,1748754339,916311696,imu_link,-0.026051271189632758,0.02160232967688992,-0.6520161920429921,0.7574493751635757,"(0.001, 0.0, 0.0, 0.0, 0.001, 0.0, 0.0, 0.0, 0.001)",0.0,0.0,0.0,"(1e-05, 0.0, 0.0, 0.0, 1e-05, 0.0, 0.0, 0.0, 1e-05)",0.00478515625,-0.669921875,9.77607421875,"(0.01, 0.0, 0.0, 0.0, 0.01, 0.0, 0.0, 0.0, 0.01)"
2025/06/01/05:05:39.966949,109,1748754339,966519918,imu_link,-0.026051271189632758,0.02160232967688992,-0.6520161920429921,0.7574493751635757,"(0.001, 0.0, 0.0, 0.0, 0.001, 0.0, 0.0, 0.0, 0.001)",0.0,0.0,0.0,"(1e-05, 0.0, 0.0, 0.0, 1e-05, 0.0, 0.0, 0.0, 1e-05)",0.0,-0.66513671875,9.77607421875,"(0.01, 0.0, 0.0, 0.0, 0.01, 0.0, 0.0, 0.0, 0.01)"
2025/06/01/05:05:39.996708,110,1748754339,996213365,imu_link,-0.026082525261705614,0.02156601855916867,-0.6520174011561904,0.7574482934887407,"(0.001, 0.0, 0.0, 0.0, 0.001, 0.0, 0.0, 0.0, 0.001)",0.0,0.0,0.0,"(1e-05, 0.0, 0.0, 0.0, 1e-05, 0.0, 0.0, 0.0, 1e-05)",0.0,-0.66513671875,9.77607421875,"(0.01, 0.0, 0.0, 0.0, 0.01, 0.0, 0.0, 0.0, 0.01)"
2025/06/01/05:05:40.017237,111,1748754340,16848127,imu_link,-0.026082525261705614,0.02156601855916867,-0.6520174011561904,0.7574482934887407,"(0.001, 0.0, 0.0, 0.0, 0.001, 0.0, 0.0, 0.0, 0.001)",0.0,0.0,0.0,"(1e-05, 0.0, 0.0, 0.0, 1e-05, 0.0, 0.0, 0.0, 1e-05)",0.00478515625,-0.669921875,9.77607421875,"(0.01, 0.0, 0.0, 0.0, 0.01, 0.0, 0.0, 0.0, 0.01)"
2025/06/01/05:05:40.067361,112,1748754340,66959927,imu_link,-0.026082525261705614,0.02156601855916867,-0.6520174011561904,0.7574482934887407,"(0.001, 0.0, 0.0, 0.0, 0.001, 0.0, 0.0, 0.0, 0.001)",0.0,0.0,0.0,"(1e-05, 0.0, 0.0, 0.0, 1e-05, 0.0, 0.0, 0.0, 1e-05)",0.0,-0.66513671875,9.77607421875,"(0.01, 0.0, 0.0, 0.0, 0.01, 0.0, 0.0, 0.0, 0.01)"
2025/06/01/05:05:40.096735,113,1748754340,96225585,imu_link,-0.026082525261705614,0.02156601855916867,-0.6520174011561904,0.7574482934887407,"(0.001, 0.0, 0.0, 0.0, 0.001, 0.0, 0.0, 0.0, 0.001)",0.0,0.0,0.0,"(1e-05, 0.0, 0.0, 0.0, 1e-05, 0.0, 0.0, 0.0, 1e-05)",0.0,-0.66513671875,9.77607421875,"(0.01, 0.0, 0.0, 0.0, 0.01, 0.0, 0.0, 0.0, 0.01)"
2025/06/01/05:05:40.117766,114,1748754340,117345882,imu_link,-0.026082525261705614,0.02156601855916867,-0.6520174011561904,0.7574482934887407,"(0.001, 0.0, 0.0, 0.0, 0.001, 0.0, 0.0, 0.0, 0.001)",0.0,0.0,0.0,"(1e-05, 0.0, 0.0, 0.0, 1e-05, 0.0, 0.0, 0.0, 1e-05)",0.0,-0.6747070312500001,9.77607421875,"(0.01, 0.0, 0.0, 0.0, 0.01, 0.0, 0.0, 0.0, 0.01)"
2025/06/01/05:05:40.167877,115,1748754340,167465948,imu_link,-0.026082525261705614,0.02156601855916867,-0.6520174011561904,0.7574482934887407,"(0.001, 0.0, 0.0, 0.0, 0.001, 0.0, 0.0, 0.0, 0.001)",0.0,0.0,0.0,"(1e-05, 0.0, 0.0, 0.0, 1e-05, 0.0, 0.0, 0.0, 1e-05)",0.0,-0.669921875,9.77607421875,"(0.01, 0.0, 0.0, 0.0, 0.01, 0.0, 0.0, 0.0, 0.01)"
2025/06/01/05:05:40.196642,116,1748754340,196183026,imu_link,-0.026082525261705614,0.02156601855916867,-0.6520174011561904,0.7574482934887407,"(0.001, 0.0, 0.0, 0.0, 0.001, 0.0, 0.0, 0.0, 0.001)",0.0,0.0,0.0,"(1e-05, 0.0, 0.0, 0.0, 1e-05, 0.0, 0.0, 0.0, 1e-05)",0.0,-0.669921875,9.77607421875,"(0.01, 0.0, 0.0, 0.0, 0.01, 0.0, 0.0, 0.0, 0.01)"
2025/06/01/05:05:40.218069,117,1748754340,217679365,imu_link,-0.026082525261705614,0.02156601855916867,-0.6520174011561904,0.7574482934887407,"(0.001, 0.0, 0.0, 0.0, 0.001, 0.0, 0.0, 0.0, 0.001)",0.0,0.0,0.0,"(1e-05, 0.0, 0.0, 0.0, 1e-05, 0.0, 0.0, 0.0, 1e-05)",0.0,-0.66513671875,9.771289062500001,"(0.01, 0.0, 0.0, 0.0, 0.01, 0.0, 0.0, 0.0, 0.01)"
2025/06/01/05:05:40.268651,118,1748754340,268218082,imu_link,-0.026051271189632758,0.02160232967688992,-0.6520161920429921,0.7574493751635757,"(0.001, 0.0, 0.0, 0.0, 0.001, 0.0, 0.0, 0.0, 0.001)",0.0,0.0,0.0,"(1e-05, 0.0, 0.0, 0.0, 1e-05, 0.0, 0.0, 0.0, 1e-05)",0.0,-0.669921875,9.780859375,"(0.01, 0.0, 0.0, 0.0, 0.01, 0.0, 0.0, 0.0, 0.01)"
2025/06/01/05:05:40.296653,119,1748754340,296179528,imu_link,-0.026051271189632758,0.02160232967688992,-0.6520161920429921,0.7574493751635757,"(0.001, 0.0, 0.0, 0.0, 0.001, 0.0, 0.0, 0.0, 0.001)",0.0,0.0,0.0,"(1e-05, 0.0, 0.0, 0.0, 1e-05, 0.0, 0.0, 0.0, 1e-05)",0.0,-0.669921875,9.780859375,"(0.01, 0.0, 0.0, 0.0, 0.01, 0.0, 0.0, 0.0, 0.01)"
2025/06/01/05:05:40.318547,120,1748754340,318193912,imu_link,-0.026051271189632758,0.02160232967688992,-0.6520161920429921,0.7574493751635757,"(0.001, 0.0, 0.0, 0.0, 0.001, 0.0, 0.0, 0.0, 0.001)",0.0,0.0,0.0,"(1e-05, 0.0, 0.0, 0.0, 1e-05, 0.0, 0.0, 0.0, 1e-05)",0.0,-0.6747070312500001,9.77607421875,"(0.01, 0.0, 0.0, 0.0, 0.01, 0.0, 0.0, 0.0, 0.01)"
2025/06/01/05:05:40.368714,121,1748754340,368358780,imu_link,-0.026051271189632758,0.02160232967688992,-0.6520161920429921,0.7574493751635757,"(0.001, 0.0, 0.0, 0.0, 0.001, 0.0, 0.0, 0.0, 0.001)",0.0,0.0,0.0,"(1e-05, 0.0, 0.0, 0.0, 1e-05, 0.0, 0.0, 0.0, 1e-05)",0.0,-0.66513671875,9.771289062500001,"(0.01, 0.0, 0.0, 0.0, 0.01, 0.0, 0.0, 0.0, 0.01)"
2025/06/01/05:05:40.396648,122,1748754340,396157667,imu_link,-0.026051271189632758,0.02160232967688992,-0.6520161920429921,0.7574493751635757,"(0.001, 0.0, 0.0, 0.0, 0.001, 0.0, 0.0, 0.0, 0.001)",0.0,0.0,0.0,"(1e-05, 0.0, 0.0, 0.0, 1e-05, 0.0, 0.0, 0.0, 1e-05)",0.0,-0.66513671875,9.771289062500001,"(0.01, 0.0, 0.0, 0.0, 0.01, 0.0, 0.0, 0.0, 0.01)"
2025/06/01/05:05:40.418969,123,1748754340,418575603,imu_link,-0.026051271189632758,0.02160232967688992,-0.6520161920429921,0.7574493751635757,"(0.001, 0.0, 0.0, 0.0, 0.001, 0.0, 0.0, 0.0, 0.001)",0.0,0.0,0.0,"(1e-05, 0.0, 0.0, 0.0, 1e-05, 0.0, 0.0, 0.0, 1e-05)",0.0,-0.6747070312500001,9.780859375,"(0.01, 0.0, 0.0, 0.0, 0.01, 0.0, 0.0, 0.0, 0.01)"
2025/06/01/05:05:40.468905,124,1748754340,468614259,imu_link,-0.026051271189632758,0.02160232967688992,-0.6520161920429921,0.7574493751635757,"(0.001, 0.0, 0.0, 0.0, 0.001, 0.0, 0.0, 0.0, 0.001)",0.0,0.0,0.0,"(1e-05, 0.0, 0.0, 0.0, 1e-05, 0.0, 0.0, 0.0, 1e-05)",0.0,-0.669921875,9.780859375,"(0.01, 0.0, 0.0, 0.0, 0.01, 0.0, 0.0, 0.0, 0.01)"
2025/06/01/05:05:40.496661,125,1748754340,496180037,imu_link,-0.026087580933732785,0.021633585286273797,-0.6520151557451517,0.7574481254761364,"(0.001, 0.0, 0.0, 0.0, 0.001, 0.0, 0.0, 0.0, 0.001)",0.0,0.0,0.0,"(1e-05, 0.0, 0.0, 0.0, 1e-05, 0.0, 0.0, 0.0, 1e-05)",0.0,-0.669921875,9.780859375,"(0.01, 0.0, 0.0, 0.0, 0.01, 0.0, 0.0, 0.0, 0.01)"
2025/06/01/05:05:40.519255,126,1748754340,518972043,imu_link,-0.026087580933732785,0.021633585286273797,-0.6520151557451517,0.7574481254761364,"(0.001, 0.0, 0.0, 0.0, 0.001, 0.0, 0.0, 0.0, 0.001)",0.0,0.0,0.0,"(1e-05, 0.0, 0.0, 0.0, 1e-05, 0.0, 0.0, 0.0, 1e-05)",0.00478515625,-0.669921875,9.77607421875,"(0.01, 0.0, 0.0, 0.0, 0.01, 0.0, 0.0, 0.0, 0.01)"
2025/06/01/05:05:40.569604,127,1748754340,569260198,imu_link,-0.026087580933732785,0.021633585286273797,-0.6520151557451517,0.7574481254761364,"(0.001, 0.0, 0.0, 0.0, 0.001, 0.0, 0.0, 0.0, 0.001)",0.0,0.0,0.0,"(1e-05, 0.0, 0.0, 0.0, 1e-05, 0.0, 0.0, 0.0, 1e-05)",0.0095703125,-0.669921875,9.77607421875,"(0.01, 0.0, 0.0, 0.0, 0.01, 0.0, 0.0, 0.0, 0.01)"
2025/06/01/05:05:40.596557,128,1748754340,596147055,imu_link,-0.026051271189632758,0.02160232967688992,-0.6520161920429921,0.7574493751635757,"(0.001, 0.0, 0.0, 0.0, 0.001, 0.0, 0.0, 0.0, 0.001)",0.0,0.0,0.0,"(1e-05, 0.0, 0.0, 0.0, 1e-05, 0.0, 0.0, 0.0, 1e-05)",0.0095703125,-0.669921875,9.77607421875,"(0.01, 0.0, 0.0, 0.0, 0.01, 0.0, 0.0, 0.0, 0.01)"
2025/06/01/05:05:40.620013,129,1748754340,619702356,imu_link,-0.026051271189632758,0.02160232967688992,-0.6520161920429921,0.7574493751635757,"(0.001, 0.0, 0.0, 0.0, 0.001, 0.0, 0.0, 0.0, 0.001)",0.0,0.0,0.0,"(1e-05, 0.0, 0.0, 0.0, 1e-05, 0.0, 0.0, 0.0, 1e-05)",0.0,-0.66513671875,9.77607421875,"(0.01, 0.0, 0.0, 0.0, 0.01, 0.0, 0.0, 0.0, 0.01)"
2025/06/01/05:05:40.670212,130,1748754340,669804349,imu_link,-0.026051271189632758,0.02160232967688992,-0.6520161920429921,0.7574493751635757,"(0.001, 0.0, 0.0, 0.0, 0.001, 0.0, 0.0, 0.0, 0.001)",0.0,0.0,0.0,"(1e-05, 0.0, 0.0, 0.0, 1e-05, 0.0, 0.0, 0.0, 1e-05)",0.0,-0.669921875,9.77607421875,"(0.01, 0.0, 0.0, 0.0, 0.01, 0.0, 0.0, 0.0, 0.01)"
2025/06/01/05:05:40.696540,131,1748754340,696141794,imu_link,-0.026051271189632758,0.02160232967688992,-0.6520161920429921,0.7574493751635757,"(0.001, 0.0, 0.0, 0.0, 0.001, 0.0, 0.0, 0.0, 0.001)",0.0,0.0,0.0,"(1e-05, 0.0, 0.0, 0.0, 1e-05, 0.0, 0.0, 0.0, 1e-05)",0.0,-0.669921875,9.77607421875,"(0.01, 0.0, 0.0, 0.0, 0.01, 0.0, 0.0, 0.0, 0.01)"
2025/06/01/05:05:40.720404,132,1748754340,720065274,imu_link,-0.026051271189632758,0.02160232967688992,-0.6520161920429921,0.7574493751635757,"(0.001, 0.0, 0.0, 0.0, 0.001, 0.0, 0.0, 0.0, 0.001)",0.0,0.0,0.0,"(1e-05, 0.0, 0.0, 0.0, 1e-05, 0.0, 0.0, 0.0, 1e-05)",0.0,-0.669921875,9.77607421875,"(0.01, 0.0, 0.0, 0.0, 0.01, 0.0, 0.0, 0.0, 0.01)"
2025/06/01/05:05:40.770648,133,1748754340,770265928,imu_link,-0.026051271189632758,0.02160232967688992,-0.6520161920429921,0.7574493751635757,"(0.001, 0.0, 0.0, 0.0, 0.001, 0.0, 0.0, 0.0, 0.001)",0.0,0.0,0.0,"(1e-05, 0.0, 0.0, 0.0, 1e-05, 0.0, 0.0, 0.0, 1e-05)",0.0,-0.66513671875,9.77607421875,"(0.01, 0.0, 0.0, 0.0, 0.01, 0.0, 0.0, 0.0, 0.01)"
2025/06/01/05:05:40.796511,134,1748754340,796137295,imu_link,-0.026051271189632758,0.02160232967688992,-0.6520161920429921,0.7574493751635757,"(0.001, 0.0, 0.0, 0.0, 0.001, 0.0, 0.0, 0.0, 0.001)",0.0,0.0,0.0,"(1e-05, 0.0, 0.0, 0.0, 1e-05, 0.0, 0.0, 0.0, 1e-05)",0.0,-0.66513671875,9.77607421875,"(0.01, 0.0, 0.0, 0.0, 0.01, 0.0, 0.0, 0.0, 0.01)"
2025/06/01/05:05:40.820972,135,1748754340,820578919,imu_link,-0.026051271189632758,0.02160232967688992,-0.6520161920429921,0.7574493751635757,"(0.001, 0.0, 0.0, 0.0, 0.001, 0.0, 0.0, 0.0, 0.001)",0.0,0.0,0.0,"(1e-05, 0.0, 0.0, 0.0, 1e-05, 0.0, 0.0, 0.0, 1e-05)",0.00478515625,-0.669921875,9.77607421875,"(0.01, 0.0, 0.0, 0.0, 0.01, 0.0, 0.0, 0.0, 0.01)"
2025/06/01/05:05:40.871166,136,1748754340,870743616,imu_link,-0.026051271189632758,0.02160232967688992,-0.6520161920429921,0.7574493751635757,"(0.001, 0.0, 0.0, 0.0, 0.001, 0.0, 0.0, 0.0, 0.001)",0.0,0.0,0.0,"(1e-05, 0.0, 0.0, 0.0, 1e-05, 0.0, 0.0, 0.0, 1e-05)",0.0,-0.669921875,9.77607421875,"(0.01, 0.0, 0.0, 0.0, 0.01, 0.0, 0.0, 0.0, 0.01)"
2025/06/01/05:05:40.896812,137,1748754340,896162470,imu_link,-0.026051271189632758,0.02160232967688992,-0.6520161920429921,0.7574493751635757,"(0.001, 0.0, 0.0, 0.0, 0.001, 0.0, 0.0, 0.0, 0.001)",0.0,0.0,0.0,"(1e-05, 0.0, 0.0, 0.0, 1e-05, 0.0, 0.0, 0.0, 1e-05)",0.0,-0.669921875,9.77607421875,"(0.01, 0.0, 0.0, 0.0, 0.01, 0.0, 0.0, 0.0, 0.01)"
2025/06/01/05:05:40.921318,138,1748754340,920995444,imu_link,-0.026051271189632758,0.02160232967688992,-0.6520161920429921,0.7574493751635757,"(0.001, 0.0, 0.0, 0.0, 0.001, 0.0, 0.0, 0.0, 0.001)",0.0,0.0,0.0,"(1e-05, 0.0, 0.0, 0.0, 1e-05, 0.0, 0.0, 0.0, 1e-05)",0.0,-0.669921875,9.77607421875,"(0.01, 0.0, 0.0, 0.0, 0.01, 0.0, 0.0, 0.0, 0.01)"
2025/06/01/05:05:40.971690,139,1748754340,971247854,imu_link,-0.026051271189632758,0.02160232967688992,-0.6520161920429921,0.7574493751635757,"(0.001, 0.0, 0.0, 0.0, 0.001, 0.0, 0.0, 0.0, 0.001)",0.0,0.0,0.0,"(1e-05, 0.0, 0.0, 0.0, 1e-05, 0.0, 0.0, 0.0, 1e-05)",0.0,-0.6747070312500001,9.780859375,"(0.01, 0.0, 0.0, 0.0, 0.01, 0.0, 0.0, 0.0, 0.01)"
2025/06/01/05:05:40.996654,140,1748754340,996178709,imu_link,-0.026051271189632758,0.02160232967688992,-0.6520161920429921,0.7574493751635757,"(0.001, 0.0, 0.0, 0.0, 0.001, 0.0, 0.0, 0.0, 0.001)",0.0,0.0,0.0,"(1e-05, 0.0, 0.0, 0.0, 1e-05, 0.0, 0.0, 0.0, 1e-05)",0.0,-0.6747070312500001,9.780859375,"(0.01, 0.0, 0.0, 0.0, 0.01, 0.0, 0.0, 0.0, 0.01)"
2025/06/01/05:05:41.021982,141,1748754341,21571581,imu_link,-0.026051271189632758,0.02160232967688992,-0.6520161920429921,0.7574493751635757,"(0.001, 0.0, 0.0, 0.0, 0.001, 0.0, 0.0, 0.0, 0.001)",0.0,0.0,0.0,"(1e-05, 0.0, 0.0, 0.0, 1e-05, 0.0, 0.0, 0.0, 1e-05)",0.0,-0.669921875,9.77607421875,"(0.01, 0.0, 0.0, 0.0, 0.01, 0.0, 0.0, 0.0, 0.01)"
2025/06/01/05:05:41.072145,142,1748754341,71772871,imu_link,-0.026087580933732785,0.021633585286273797,-0.6520151557451517,0.7574481254761364,"(0.001, 0.0, 0.0, 0.0, 0.001, 0.0, 0.0, 0.0, 0.001)",0.0,0.0,0.0,"(1e-05, 0.0, 0.0, 0.0, 1e-05, 0.0, 0.0, 0.0, 1e-05)",0.00478515625,-0.669921875,9.77607421875,"(0.01, 0.0, 0.0, 0.0, 0.01, 0.0, 0.0, 0.0, 0.01)"
2025/06/01/05:05:41.096541,143,1748754341,96141719,imu_link,-0.026087580933732785,0.021633585286273797,-0.6520151557451517,0.7574481254761364,"(0.001, 0.0, 0.0, 0.0, 0.001, 0.0, 0.0, 0.0, 0.001)",0.0,0.0,0.0,"(1e-05, 0.0, 0.0, 0.0, 1e-05, 0.0, 0.0, 0.0, 1e-05)",0.00478515625,-0.669921875,9.77607421875,"(0.01, 0.0, 0.0, 0.0, 0.01, 0.0, 0.0, 0.0, 0.01)"
2025/06/01/05:05:41.122391,144,1748754341,122027680,imu_link,-0.026087580933732785,0.021633585286273797,-0.6520151557451517,0.7574481254761364,"(0.001, 0.0, 0.0, 0.0, 0.001, 0.0, 0.0, 0.0, 0.001)",0.0,0.0,0.0,"(1e-05, 0.0, 0.0, 0.0, 1e-05, 0.0, 0.0, 0.0, 1e-05)",0.0,-0.669921875,9.77607421875,"(0.01, 0.0, 0.0, 0.0, 0.01, 0.0, 0.0, 0.0, 0.01)"
2025/06/01/05:05:41.172620,145,1748754341,172201671,imu_link,-0.026087580933732785,0.021633585286273797,-0.6520151557451517,0.7574481254761364,"(0.001, 0.0, 0.0, 0.0, 0.001, 0.0, 0.0, 0.0, 0.001)",0.0,0.0,0.0,"(1e-05, 0.0, 0.0, 0.0, 1e-05, 0.0, 0.0, 0.0, 1e-05)",0.0,-0.669921875,9.77607421875,"(0.01, 0.0, 0.0, 0.0, 0.01, 0.0, 0.0, 0.0, 0.01)"
2025/06/01/05:05:41.196516,146,1748754341,196135998,imu_link,-0.026087580933732785,0.021633585286273797,-0.6520151557451517,0.7574481254761364,"(0.001, 0.0, 0.0, 0.0, 0.001, 0.0, 0.0, 0.0, 0.001)",0.0,0.0,0.0,"(1e-05, 0.0, 0.0, 0.0, 1e-05, 0.0, 0.0, 0.0, 1e-05)",0.0,-0.669921875,9.77607421875,"(0.01, 0.0, 0.0, 0.0, 0.01, 0.0, 0.0, 0.0, 0.01)"
2025/06/01/05:05:41.222897,147,1748754341,222514066,imu_link,-0.026087580933732785,0.021633585286273797,-0.6520151557451517,0.7574481254761364,"(0.001, 0.0, 0.0, 0.0, 0.001, 0.0, 0.0, 0.0, 0.001)",0.0,0.0,0.0,"(1e-05, 0.0, 0.0, 0.0, 1e-05, 0.0, 0.0, 0.0, 1e-05)",0.0,-0.669921875,9.77607421875,"(0.01, 0.0, 0.0, 0.0, 0.01, 0.0, 0.0, 0.0, 0.01)"
2025/06/01/05:05:41.273358,148,1748754341,272960729,imu_link,-0.026087580933732785,0.021633585286273797,-0.6520151557451517,0.7574481254761364,"(0.001, 0.0, 0.0, 0.0, 0.001, 0.0, 0.0, 0.0, 0.001)",0.0,0.0,0.0,"(1e-05, 0.0, 0.0, 0.0, 1e-05, 0.0, 0.0, 0.0, 1e-05)",0.0,-0.669921875,9.77607421875,"(0.01, 0.0, 0.0, 0.0, 0.01, 0.0, 0.0, 0.0, 0.01)"
2025/06/01/05:05:41.296775,149,1748754341,296323713,imu_link,-0.026087580933732785,0.021633585286273797,-0.6520151557451517,0.7574481254761364,"(0.001, 0.0, 0.0, 0.0, 0.001, 0.0, 0.0, 0.0, 0.001)",0.0,0.0,0.0,"(1e-05, 0.0, 0.0, 0.0, 1e-05, 0.0, 0.0, 0.0, 1e-05)",0.0,-0.669921875,9.77607421875,"(0.01, 0.0, 0.0, 0.0, 0.01, 0.0, 0.0, 0.0, 0.01)"
2025/06/01/05:05:41.323431,150,1748754341,323001433,imu_link,-0.026087580933732785,0.021633585286273797,-0.6520151557451517,0.7574481254761364,"(0.001, 0.0, 0.0, 0.0, 0.001, 0.0, 0.0, 0.0, 0.001)",0.0,0.0,0.0,"(1e-05, 0.0, 0.0, 0.0, 1e-05, 0.0, 0.0, 0.0, 1e-05)",0.00478515625,-0.669921875,9.77607421875,"(0.01, 0.0, 0.0, 0.0, 0.01, 0.0, 0.0, 0.0, 0.01)"
2025/06/01/05:05:41.373670,151,1748754341,373232589,imu_link,-0.026087580933732785,0.021633585286273797,-0.6520151557451517,0.7574481254761364,"(0.001, 0.0, 0.0, 0.0, 0.001, 0.0, 0.0, 0.0, 0.001)",0.0,0.0,0.0,"(1e-05, 0.0, 0.0, 0.0, 1e-05, 0.0, 0.0, 0.0, 1e-05)",0.00478515625,-0.669921875,9.77607421875,"(0.01, 0.0, 0.0, 0.0, 0.01, 0.0, 0.0, 0.0, 0.01)"
2025/06/01/05:05:41.396562,152,1748754341,396128804,imu_link,-0.026087580933732785,0.021633585286273797,-0.6520151557451517,0.7574481254761364,"(0.001, 0.0, 0.0, 0.0, 0.001, 0.0, 0.0, 0.0, 0.001)",0.0,0.0,0.0,"(1e-05, 0.0, 0.0, 0.0, 1e-05, 0.0, 0.0, 0.0, 1e-05)",0.00478515625,-0.669921875,9.77607421875,"(0.01, 0.0, 0.0, 0.0, 0.01, 0.0, 0.0, 0.0, 0.01)"
2025/06/01/05:05:41.423660,153,1748754341,423383537,imu_link,-0.026087580933732785,0.021633585286273797,-0.6520151557451517,0.7574481254761364,"(0.001, 0.0, 0.0, 0.0, 0.001, 0.0, 0.0, 0.0, 0.001)",0.0,0.0,0.0,"(1e-05, 0.0, 0.0, 0.0, 1e-05, 0.0, 0.0, 0.0, 1e-05)",0.0,-0.669921875,9.77607421875,"(0.01, 0.0, 0.0, 0.0, 0.01, 0.0, 0.0, 0.0, 0.01)"
2025/06/01/05:05:41.474041,154,1748754341,473669183,imu_link,-0.026087580933732785,0.021633585286273797,-0.6520151557451517,0.7574481254761364,"(0.001, 0.0, 0.0, 0.0, 0.001, 0.0, 0.0, 0.0, 0.001)",0.0,0.0,0.0,"(1e-05, 0.0, 0.0, 0.0, 1e-05, 0.0, 0.0, 0.0, 1e-05)",0.0,-0.669921875,9.77607421875,"(0.01, 0.0, 0.0, 0.0, 0.01, 0.0, 0.0, 0.0, 0.01)"
2025/06/01/05:05:41.496541,155,1748754341,496140445,imu_link,-0.026087580933732785,0.021633585286273797,-0.6520151557451517,0.7574481254761364,"(0.001, 0.0, 0.0, 0.0, 0.001, 0.0, 0.0, 0.0, 0.001)",0.0,0.0,0.0,"(1e-05, 0.0, 0.0, 0.0, 1e-05, 0.0, 0.0, 0.0, 1e-05)",0.0,-0.669921875,9.77607421875,"(0.01, 0.0, 0.0, 0.0, 0.01, 0.0, 0.0, 0.0, 0.01)"
2025/06/01/05:05:41.524234,156,1748754341,523945431,imu_link,-0.026087580933732785,0.021633585286273797,-0.6520151557451517,0.7574481254761364,"(0.001, 0.0, 0.0, 0.0, 0.001, 0.0, 0.0, 0.0, 0.001)",0.0,0.0,0.0,"(1e-05, 0.0, 0.0, 0.0, 1e-05, 0.0, 0.0, 0.0, 1e-05)",0.00478515625,-0.669921875,9.77607421875,"(0.01, 0.0, 0.0, 0.0, 0.01, 0.0, 0.0, 0.0, 0.01)"
2025/06/01/05:05:41.574563,157,1748754341,574139409,imu_link,-0.026087580933732785,0.021633585286273797,-0.6520151557451517,0.7574481254761364,"(0.001, 0.0, 0.0, 0.0, 0.001, 0.0, 0.0, 0.0, 0.001)",0.0,0.0,0.0,"(1e-05, 0.0, 0.0, 0.0, 1e-05, 0.0, 0.0, 0.0, 1e-05)",0.0,-0.669921875,9.771289062500001,"(0.01, 0.0, 0.0, 0.0, 0.01, 0.0, 0.0, 0.0, 0.01)"
2025/06/01/05:05:41.596589,158,1748754341,596144913,imu_link,-0.026087580933732785,0.021633585286273797,-0.6520151557451517,0.7574481254761364,"(0.001, 0.0, 0.0, 0.0, 0.001, 0.0, 0.0, 0.0, 0.001)",0.0,0.0,0.0,"(1e-05, 0.0, 0.0, 0.0, 1e-05, 0.0, 0.0, 0.0, 1e-05)",0.0,-0.669921875,9.771289062500001,"(0.01, 0.0, 0.0, 0.0, 0.01, 0.0, 0.0, 0.0, 0.01)"
2025/06/01/05:05:41.624904,159,1748754341,624442897,imu_link,-0.026087580933732785,0.021633585286273797,-0.6520151557451517,0.7574481254761364,"(0.001, 0.0, 0.0, 0.0, 0.001, 0.0, 0.0, 0.0, 0.001)",0.0,0.0,0.0,"(1e-05, 0.0, 0.0, 0.0, 1e-05, 0.0, 0.0, 0.0, 1e-05)",0.0,-0.669921875,9.77607421875,"(0.01, 0.0, 0.0, 0.0, 0.01, 0.0, 0.0, 0.0, 0.01)"
2025/06/01/05:05:41.675254,160,1748754341,674826364,imu_link,-0.026087580933732785,0.021633585286273797,-0.6520151557451517,0.7574481254761364,"(0.001, 0.0, 0.0, 0.0, 0.001, 0.0, 0.0, 0.0, 0.001)",0.0,0.0,0.0,"(1e-05, 0.0, 0.0, 0.0, 1e-05, 0.0, 0.0, 0.0, 1e-05)",0.0,-0.6747070312500001,9.77607421875,"(0.01, 0.0, 0.0, 0.0, 0.01, 0.0, 0.0, 0.0, 0.01)"
2025/06/01/05:05:41.696864,161,1748754341,696352454,imu_link,-0.026087580933732785,0.021633585286273797,-0.6520151557451517,0.7574481254761364,"(0.001, 0.0, 0.0, 0.0, 0.001, 0.0, 0.0, 0.0, 0.001)",0.0,0.0,0.0,"(1e-05, 0.0, 0.0, 0.0, 1e-05, 0.0, 0.0, 0.0, 1e-05)",0.0,-0.6747070312500001,9.77607421875,"(0.01, 0.0, 0.0, 0.0, 0.01, 0.0, 0.0, 0.0, 0.01)"
2025/06/01/05:05:41.725493,162,1748754341,725053551,imu_link,-0.026087580933732785,0.021633585286273797,-0.6520151557451517,0.7574481254761364,"(0.001, 0.0, 0.0, 0.0, 0.001, 0.0, 0.0, 0.0, 0.001)",0.0,0.0,0.0,"(1e-05, 0.0, 0.0, 0.0, 1e-05, 0.0, 0.0, 0.0, 1e-05)",0.0,-0.669921875,9.77607421875,"(0.01, 0.0, 0.0, 0.0, 0.01, 0.0, 0.0, 0.0, 0.01)"
2025/06/01/05:05:41.775397,163,1748754341,775120535,imu_link,-0.026087580933732785,0.021633585286273797,-0.6520151557451517,0.7574481254761364,"(0.001, 0.0, 0.0, 0.0, 0.001, 0.0, 0.0, 0.0, 0.001)",0.0,0.0,0.0,"(1e-05, 0.0, 0.0, 0.0, 1e-05, 0.0, 0.0, 0.0, 1e-05)",0.0,-0.669921875,9.77607421875,"(0.01, 0.0, 0.0, 0.0, 0.01, 0.0, 0.0, 0.0, 0.01)"
2025/06/01/05:05:41.796434,164,1748754341,796138439,imu_link,-0.026087580933732785,0.021633585286273797,-0.6520151557451517,0.7574481254761364,"(0.001, 0.0, 0.0, 0.0, 0.001, 0.0, 0.0, 0.0, 0.001)",0.0,0.0,0.0,"(1e-05, 0.0, 0.0, 0.0, 1e-05, 0.0, 0.0, 0.0, 1e-05)",0.0,-0.669921875,9.77607421875,"(0.01, 0.0, 0.0, 0.0, 0.01, 0.0, 0.0, 0.0, 0.01)"
2025/06/01/05:05:41.825754,165,1748754341,825378910,imu_link,-0.026087580933732785,0.021633585286273797,-0.6520151557451517,0.7574481254761364,"(0.001, 0.0, 0.0, 0.0, 0.001, 0.0, 0.0, 0.0, 0.001)",0.0,0.0,0.0,"(1e-05, 0.0, 0.0, 0.0, 1e-05, 0.0, 0.0, 0.0, 1e-05)",0.0,-0.669921875,9.77607421875,"(0.01, 0.0, 0.0, 0.0, 0.01, 0.0, 0.0, 0.0, 0.01)"
2025/06/01/05:05:41.876300,166,1748754341,875919436,imu_link,-0.026087580933732785,0.021633585286273797,-0.6520151557451517,0.7574481254761364,"(0.001, 0.0, 0.0, 0.0, 0.001, 0.0, 0.0, 0.0, 0.001)",0.0,0.0,0.0,"(1e-05, 0.0, 0.0, 0.0, 1e-05, 0.0, 0.0, 0.0, 1e-05)",0.0,-0.669921875,9.77607421875,"(0.01, 0.0, 0.0, 0.0, 0.01, 0.0, 0.0, 0.0, 0.01)"
2025/06/01/05:05:41.896900,167,1748754341,896338658,imu_link,-0.026087580933732785,0.021633585286273797,-0.6520151557451517,0.7574481254761364,"(0.001, 0.0, 0.0, 0.0, 0.001, 0.0, 0.0, 0.0, 0.001)",0.0,0.0,0.0,"(1e-05, 0.0, 0.0, 0.0, 1e-05, 0.0, 0.0, 0.0, 1e-05)",0.0,-0.669921875,9.77607421875,"(0.01, 0.0, 0.0, 0.0, 0.01, 0.0, 0.0, 0.0, 0.01)"
2025/06/01/05:05:41.926538,168,1748754341,926114906,imu_link,-0.026087580933732785,0.021633585286273797,-0.6520151557451517,0.7574481254761364,"(0.001, 0.0, 0.0, 0.0, 0.001, 0.0, 0.0, 0.0, 0.001)",0.0,0.0,0.0,"(1e-05, 0.0, 0.0, 0.0, 1e-05, 0.0, 0.0, 0.0, 1e-05)",0.0,-0.669921875,9.77607421875,"(0.01, 0.0, 0.0, 0.0, 0.01, 0.0, 0.0, 0.0, 0.01)"
2025/06/01/05:05:41.976395,169,1748754341,976050356,imu_link,-0.026087580933732785,0.021633585286273797,-0.6520151557451517,0.7574481254761364,"(0.001, 0.0, 0.0, 0.0, 0.001, 0.0, 0.0, 0.0, 0.001)",0.0,0.0,0.0,"(1e-05, 0.0, 0.0, 0.0, 1e-05, 0.0, 0.0, 0.0, 1e-05)",0.0,-0.669921875,9.77607421875,"(0.01, 0.0, 0.0, 0.0, 0.01, 0.0, 0.0, 0.0, 0.01)"
2025/06/01/05:05:41.996554,170,1748754341,996140803,imu_link,-0.026087580933732785,0.021633585286273797,-0.6520151557451517,0.7574481254761364,"(0.001, 0.0, 0.0, 0.0, 0.001, 0.0, 0.0, 0.0, 0.001)",0.0,0.0,0.0,"(1e-05, 0.0, 0.0, 0.0, 1e-05, 0.0, 0.0, 0.0, 1e-05)",0.0,-0.669921875,9.77607421875,"(0.01, 0.0, 0.0, 0.0, 0.01, 0.0, 0.0, 0.0, 0.01)"
2025/06/01/05:05:42.026766,171,1748754342,26389699,imu_link,-0.026087580933732785,0.021633585286273797,-0.6520151557451517,0.7574481254761364,"(0.001, 0.0, 0.0, 0.0, 0.001, 0.0, 0.0, 0.0, 0.001)",0.0,0.0,0.0,"(1e-05, 0.0, 0.0, 0.0, 1e-05, 0.0, 0.0, 0.0, 1e-05)",0.0,-0.669921875,9.780859375,"(0.01, 0.0, 0.0, 0.0, 0.01, 0.0, 0.0, 0.0, 0.01)"
2025/06/01/05:05:42.077387,172,1748754342,76920662,imu_link,-0.026087580933732785,0.021633585286273797,-0.6520151557451517,0.7574481254761364,"(0.001, 0.0, 0.0, 0.0, 0.001, 0.0, 0.0, 0.0, 0.001)",0.0,0.0,0.0,"(1e-05, 0.0, 0.0, 0.0, 1e-05, 0.0, 0.0, 0.0, 1e-05)",0.0,-0.669921875,9.77607421875,"(0.01, 0.0, 0.0, 0.0, 0.01, 0.0, 0.0, 0.0, 0.01)"
2025/06/01/05:05:42.096564,173,1748754342,96149488,imu_link,-0.026087580933732785,0.021633585286273797,-0.6520151557451517,0.7574481254761364,"(0.001, 0.0, 0.0, 0.0, 0.001, 0.0, 0.0, 0.0, 0.001)",0.0,0.0,0.0,"(1e-05, 0.0, 0.0, 0.0, 1e-05, 0.0, 0.0, 0.0, 1e-05)",0.0,-0.669921875,9.77607421875,"(0.01, 0.0, 0.0, 0.0, 0.01, 0.0, 0.0, 0.0, 0.01)"
2025/06/01/05:05:42.127514,174,1748754342,126999092,imu_link,-0.026087580933732785,0.021633585286273797,-0.6520151557451517,0.7574481254761364,"(0.001, 0.0, 0.0, 0.0, 0.001, 0.0, 0.0, 0.0, 0.001)",0.0,0.0,0.0,"(1e-05, 0.0, 0.0, 0.0, 1e-05, 0.0, 0.0, 0.0, 1e-05)",0.0,-0.669921875,9.77607421875,"(0.01, 0.0, 0.0, 0.0, 0.01, 0.0, 0.0, 0.0, 0.01)"
2025/06/01/05:05:42.177701,175,1748754342,177223631,imu_link,-0.026087580933732785,0.021633585286273797,-0.6520151557451517,0.7574481254761364,"(0.001, 0.0, 0.0, 0.0, 0.001, 0.0, 0.0, 0.0, 0.001)",0.0,0.0,0.0,"(1e-05, 0.0, 0.0, 0.0, 1e-05, 0.0, 0.0, 0.0, 1e-05)",0.00478515625,-0.669921875,9.77607421875,"(0.01, 0.0, 0.0, 0.0, 0.01, 0.0, 0.0, 0.0, 0.01)"
2025/06/01/05:05:42.196847,176,1748754342,196347122,imu_link,-0.026087580933732785,0.021633585286273797,-0.6520151557451517,0.7574481254761364,"(0.001, 0.0, 0.0, 0.0, 0.001, 0.0, 0.0, 0.0, 0.001)",0.0,0.0,0.0,"(1e-05, 0.0, 0.0, 0.0, 1e-05, 0.0, 0.0, 0.0, 1e-05)",0.00478515625,-0.669921875,9.77607421875,"(0.01, 0.0, 0.0, 0.0, 0.01, 0.0, 0.0, 0.0, 0.01)"
2025/06/01/05:05:42.227860,177,1748754342,227426019,imu_link,-0.026087580933732785,0.021633585286273797,-0.6520151557451517,0.7574481254761364,"(0.001, 0.0, 0.0, 0.0, 0.001, 0.0, 0.0, 0.0, 0.001)",0.0,0.0,0.0,"(1e-05, 0.0, 0.0, 0.0, 1e-05, 0.0, 0.0, 0.0, 1e-05)",0.00478515625,-0.66513671875,9.77607421875,"(0.01, 0.0, 0.0, 0.0, 0.01, 0.0, 0.0, 0.0, 0.01)"
2025/06/01/05:05:42.278044,178,1748754342,277625792,imu_link,-0.026087580933732785,0.021633585286273797,-0.6520151557451517,0.7574481254761364,"(0.001, 0.0, 0.0, 0.0, 0.001, 0.0, 0.0, 0.0, 0.001)",0.0,0.0,0.0,"(1e-05, 0.0, 0.0, 0.0, 1e-05, 0.0, 0.0, 0.0, 1e-05)",0.0,-0.669921875,9.77607421875,"(0.01, 0.0, 0.0, 0.0, 0.01, 0.0, 0.0, 0.0, 0.01)"
2025/06/01/05:05:42.296829,179,1748754342,296345629,imu_link,-0.026087580933732785,0.021633585286273797,-0.6520151557451517,0.7574481254761364,"(0.001, 0.0, 0.0, 0.0, 0.001, 0.0, 0.0, 0.0, 0.001)",0.0,0.0,0.0,"(1e-05, 0.0, 0.0, 0.0, 1e-05, 0.0, 0.0, 0.0, 1e-05)",0.0,-0.669921875,9.77607421875,"(0.01, 0.0, 0.0, 0.0, 0.01, 0.0, 0.0, 0.0, 0.01)"
2025/06/01/05:05:42.328425,180,1748754342,327950234,imu_link,-0.026087580933732785,0.021633585286273797,-0.6520151557451517,0.7574481254761364,"(0.001, 0.0, 0.0, 0.0, 0.001, 0.0, 0.0, 0.0, 0.001)",0.0,0.0,0.0,"(1e-05, 0.0, 0.0, 0.0, 1e-05, 0.0, 0.0, 0.0, 1e-05)",0.00478515625,-0.669921875,9.77607421875,"(0.01, 0.0, 0.0, 0.0, 0.01, 0.0, 0.0, 0.0, 0.01)"
2025/06/01/05:05:42.378499,181,1748754342,378122637,imu_link,-0.026087580933732785,0.021633585286273797,-0.6520151557451517,0.7574481254761364,"(0.001, 0.0, 0.0, 0.0, 0.001, 0.0, 0.0, 0.0, 0.001)",0.0,0.0,0.0,"(1e-05, 0.0, 0.0, 0.0, 1e-05, 0.0, 0.0, 0.0, 1e-05)",0.0,-0.669921875,9.77607421875,"(0.01, 0.0, 0.0, 0.0, 0.01, 0.0, 0.0, 0.0, 0.01)"
2025/06/01/05:05:42.396432,182,1748754342,396136133,imu_link,-0.026087580933732785,0.021633585286273797,-0.6520151557451517,0.7574481254761364,"(0.001, 0.0, 0.0, 0.0, 0.001, 0.0, 0.0, 0.0, 0.001)",0.0,0.0,0.0,"(1e-05, 0.0, 0.0, 0.0, 1e-05, 0.0, 0.0, 0.0, 1e-05)",0.0,-0.669921875,9.77607421875,"(0.01, 0.0, 0.0, 0.0, 0.01, 0.0, 0.0, 0.0, 0.01)"
2025/06/01/05:05:42.428756,183,1748754342,428349390,imu_link,-0.026087580933732785,0.021633585286273797,-0.6520151557451517,0.7574481254761364,"(0.001, 0.0, 0.0, 0.0, 0.001, 0.0, 0.0, 0.0, 0.001)",0.0,0.0,0.0,"(1e-05, 0.0, 0.0, 0.0, 1e-05, 0.0, 0.0, 0.0, 1e-05)",0.0,-0.669921875,9.77607421875,"(0.01, 0.0, 0.0, 0.0, 0.01, 0.0, 0.0, 0.0, 0.01)"
2025/06/01/05:05:42.479350,184,1748754342,478711783,imu_link,-0.026087580933732785,0.021633585286273797,-0.6520151557451517,0.7574481254761364,"(0.001, 0.0, 0.0, 0.0, 0.001, 0.0, 0.0, 0.0, 0.001)",0.0,0.0,0.0,"(1e-05, 0.0, 0.0, 0.0, 1e-05, 0.0, 0.0, 0.0, 1e-05)",0.00478515625,-0.669921875,9.77607421875,"(0.01, 0.0, 0.0, 0.0, 0.01, 0.0, 0.0, 0.0, 0.01)"
2025/06/01/05:05:42.496470,185,1748754342,496120795,imu_link,-0.026087580933732785,0.021633585286273797,-0.6520151557451517,0.7574481254761364,"(0.001, 0.0, 0.0, 0.0, 0.001, 0.0, 0.0, 0.0, 0.001)",0.0,0.0,0.0,"(1e-05, 0.0, 0.0, 0.0, 1e-05, 0.0, 0.0, 0.0, 1e-05)",0.00478515625,-0.669921875,9.77607421875,"(0.01, 0.0, 0.0, 0.0, 0.01, 0.0, 0.0, 0.0, 0.01)"
2025/06/01/05:05:42.529431,186,1748754342,528920152,imu_link,-0.026087580933732785,0.021633585286273797,-0.6520151557451517,0.7574481254761364,"(0.001, 0.0, 0.0, 0.0, 0.001, 0.0, 0.0, 0.0, 0.001)",0.0,0.0,0.0,"(1e-05, 0.0, 0.0, 0.0, 1e-05, 0.0, 0.0, 0.0, 1e-05)",0.0,-0.669921875,9.77607421875,"(0.01, 0.0, 0.0, 0.0, 0.01, 0.0, 0.0, 0.0, 0.01)"
2025/06/01/05:05:42.579714,187,1748754342,579102462,imu_link,-0.026087580933732785,0.021633585286273797,-0.6520151557451517,0.7574481254761364,"(0.001, 0.0, 0.0, 0.0, 0.001, 0.0, 0.0, 0.0, 0.001)",0.0,0.0,0.0,"(1e-05, 0.0, 0.0, 0.0, 1e-05, 0.0, 0.0, 0.0, 1e-05)",0.0,-0.66513671875,9.77607421875,"(0.01, 0.0, 0.0, 0.0, 0.01, 0.0, 0.0, 0.0, 0.01)"
2025/06/01/05:05:42.596490,188,1748754342,596131405,imu_link,-0.026087580933732785,0.021633585286273797,-0.6520151557451517,0.7574481254761364,"(0.001, 0.0, 0.0, 0.0, 0.001, 0.0, 0.0, 0.0, 0.001)",0.0,0.0,0.0,"(1e-05, 0.0, 0.0, 0.0, 1e-05, 0.0, 0.0, 0.0, 1e-05)",0.0,-0.66513671875,9.77607421875,"(0.01, 0.0, 0.0, 0.0, 0.01, 0.0, 0.0, 0.0, 0.01)"
2025/06/01/05:05:42.629762,189,1748754342,629398273,imu_link,-0.026087580933732785,0.021633585286273797,-0.6520151557451517,0.7574481254761364,"(0.001, 0.0, 0.0, 0.0, 0.001, 0.0, 0.0, 0.0, 0.001)",0.0,0.0,0.0,"(1e-05, 0.0, 0.0, 0.0, 1e-05, 0.0, 0.0, 0.0, 1e-05)",0.00478515625,-0.669921875,9.77607421875,"(0.01, 0.0, 0.0, 0.0, 0.01, 0.0, 0.0, 0.0, 0.01)"
2025/06/01/05:05:42.679848,190,1748754342,679508391,imu_link,-0.026087580933732785,0.021633585286273797,-0.6520151557451517,0.7574481254761364,"(0.001, 0.0, 0.0, 0.0, 0.001, 0.0, 0.0, 0.0, 0.001)",0.0,0.0,0.0,"(1e-05, 0.0, 0.0, 0.0, 1e-05, 0.0, 0.0, 0.0, 1e-05)",0.0,-0.669921875,9.77607421875,"(0.01, 0.0, 0.0, 0.0, 0.01, 0.0, 0.0, 0.0, 0.01)"
2025/06/01/05:05:42.696534,191,1748754342,696139069,imu_link,-0.026087580933732785,0.021633585286273797,-0.6520151557451517,0.7574481254761364,"(0.001, 0.0, 0.0, 0.0, 0.001, 0.0, 0.0, 0.0, 0.001)",0.0,0.0,0.0,"(1e-05, 0.0, 0.0, 0.0, 1e-05, 0.0, 0.0, 0.0, 1e-05)",0.0,-0.669921875,9.77607421875,"(0.01, 0.0, 0.0, 0.0, 0.01, 0.0, 0.0, 0.0, 0.01)"
2025/06/01/05:05:42.730232,192,1748754342,729850757,imu_link,-0.026087580933732785,0.021633585286273797,-0.6520151557451517,0.7574481254761364,"(0.001, 0.0, 0.0, 0.0, 0.001, 0.0, 0.0, 0.0, 0.001)",0.0,0.0,0.0,"(1e-05, 0.0, 0.0, 0.0, 1e-05, 0.0, 0.0, 0.0, 1e-05)",0.0,-0.669921875,9.77607421875,"(0.01, 0.0, 0.0, 0.0, 0.01, 0.0, 0.0, 0.0, 0.01)"
2025/06/01/05:05:42.780341,193,1748754342,780046152,imu_link,-0.026087580933732785,0.021633585286273797,-0.6520151557451517,0.7574481254761364,"(0.001, 0.0, 0.0, 0.0, 0.001, 0.0, 0.0, 0.0, 0.001)",0.0,0.0,0.0,"(1e-05, 0.0, 0.0, 0.0, 1e-05, 0.0, 0.0, 0.0, 1e-05)",0.00478515625,-0.669921875,9.77607421875,"(0.01, 0.0, 0.0, 0.0, 0.01, 0.0, 0.0, 0.0, 0.01)"
2025/06/01/05:05:42.796460,194,1748754342,796132257,imu_link,-0.026087580933732785,0.021633585286273797,-0.6520151557451517,0.7574481254761364,"(0.001, 0.0, 0.0, 0.0, 0.001, 0.0, 0.0, 0.0, 0.001)",0.0,0.0,0.0,"(1e-05, 0.0, 0.0, 0.0, 1e-05, 0.0, 0.0, 0.0, 1e-05)",0.00478515625,-0.669921875,9.77607421875,"(0.01, 0.0, 0.0, 0.0, 0.01, 0.0, 0.0, 0.0, 0.01)"
2025/06/01/05:05:42.830683,195,1748754342,830317106,imu_link,-0.026087580933732785,0.021633585286273797,-0.6520151557451517,0.7574481254761364,"(0.001, 0.0, 0.0, 0.0, 0.001, 0.0, 0.0, 0.0, 0.001)",0.0,0.0,0.0,"(1e-05, 0.0, 0.0, 0.0, 1e-05, 0.0, 0.0, 0.0, 1e-05)",0.0,-0.669921875,9.77607421875,"(0.01, 0.0, 0.0, 0.0, 0.01, 0.0, 0.0, 0.0, 0.01)"
2025/06/01/05:05:42.881045,196,1748754342,880608698,imu_link,-0.026087580933732785,0.021633585286273797,-0.6520151557451517,0.7574481254761364,"(0.001, 0.0, 0.0, 0.0, 0.001, 0.0, 0.0, 0.0, 0.001)",0.0,0.0,0.0,"(1e-05, 0.0, 0.0, 0.0, 1e-05, 0.0, 0.0, 0.0, 1e-05)",0.00478515625,-0.669921875,9.77607421875,"(0.01, 0.0, 0.0, 0.0, 0.01, 0.0, 0.0, 0.0, 0.01)"
2025/06/01/05:05:42.896457,197,1748754342,896150040,imu_link,-0.026087580933732785,0.021633585286273797,-0.6520151557451517,0.7574481254761364,"(0.001, 0.0, 0.0, 0.0, 0.001, 0.0, 0.0, 0.0, 0.001)",0.0,0.0,0.0,"(1e-05, 0.0, 0.0, 0.0, 1e-05, 0.0, 0.0, 0.0, 1e-05)",0.00478515625,-0.669921875,9.77607421875,"(0.01, 0.0, 0.0, 0.0, 0.01, 0.0, 0.0, 0.0, 0.01)"
2025/06/01/05:05:42.931262,198,1748754342,930859746,imu_link,-0.026087580933732785,0.021633585286273797,-0.6520151557451517,0.7574481254761364,"(0.001, 0.0, 0.0, 0.0, 0.001, 0.0, 0.0, 0.0, 0.001)",0.0,0.0,0.0,"(1e-05, 0.0, 0.0, 0.0, 1e-05, 0.0, 0.0, 0.0, 1e-05)",0.0,-0.669921875,9.77607421875,"(0.01, 0.0, 0.0, 0.0, 0.01, 0.0, 0.0, 0.0, 0.01)"
2025/06/01/05:05:42.981512,199,1748754342,981096377,imu_link,-0.026087580933732785,0.021633585286273797,-0.6520151557451517,0.7574481254761364,"(0.001, 0.0, 0.0, 0.0, 0.001, 0.0, 0.0, 0.0, 0.001)",0.0,0.0,0.0,"(1e-05, 0.0, 0.0, 0.0, 1e-05, 0.0, 0.0, 0.0, 1e-05)",0.0,-0.669921875,9.77607421875,"(0.01, 0.0, 0.0, 0.0, 0.01, 0.0, 0.0, 0.0, 0.01)"
2025/06/01/05:05:42.996588,200,1748754342,996160088,imu_link,-0.026087580933732785,0.021633585286273797,-0.6520151557451517,0.7574481254761364,"(0.001, 0.0, 0.0, 0.0, 0.001, 0.0, 0.0, 0.0, 0.001)",0.0,0.0,0.0,"(1e-05, 0.0, 0.0, 0.0, 1e-05, 0.0, 0.0, 0.0, 1e-05)",0.0,-0.669921875,9.77607421875,"(0.01, 0.0, 0.0, 0.0, 0.01, 0.0, 0.0, 0.0, 0.01)"
2025/06/01/05:05:43.031513,201,1748754343,31193369,imu_link,-0.026087580933732785,0.021633585286273797,-0.6520151557451517,0.7574481254761364,"(0.001, 0.0, 0.0, 0.0, 0.001, 0.0, 0.0, 0.0, 0.001)",0.0,0.0,0.0,"(1e-05, 0.0, 0.0, 0.0, 1e-05, 0.0, 0.0, 0.0, 1e-05)",0.0,-0.6747070312500001,9.77607421875,"(0.01, 0.0, 0.0, 0.0, 0.01, 0.0, 0.0, 0.0, 0.01)"
2025/06/01/05:05:43.081768,202,1748754343,81444863,imu_link,-0.026087580933732785,0.021633585286273797,-0.6520151557451517,0.7574481254761364,"(0.001, 0.0, 0.0, 0.0, 0.001, 0.0, 0.0, 0.0, 0.001)",0.0,0.0,0.0,"(1e-05, 0.0, 0.0, 0.0, 1e-05, 0.0, 0.0, 0.0, 1e-05)",0.0,-0.669921875,9.771289062500001,"(0.01, 0.0, 0.0, 0.0, 0.01, 0.0, 0.0, 0.0, 0.01)"
2025/06/01/05:05:43.096542,203,1748754343,96140852,imu_link,-0.026087580933732785,0.021633585286273797,-0.6520151557451517,0.7574481254761364,"(0.001, 0.0, 0.0, 0.0, 0.001, 0.0, 0.0, 0.0, 0.001)",0.0,0.0,0.0,"(1e-05, 0.0, 0.0, 0.0, 1e-05, 0.0, 0.0, 0.0, 1e-05)",0.0,-0.669921875,9.771289062500001,"(0.01, 0.0, 0.0, 0.0, 0.01, 0.0, 0.0, 0.0, 0.01)"
2025/06/01/05:05:43.132327,204,1748754343,131884824,imu_link,-0.026087580933732785,0.021633585286273797,-0.6520151557451517,0.7574481254761364,"(0.001, 0.0, 0.0, 0.0, 0.001, 0.0, 0.0, 0.0, 0.001)",0.0,0.0,0.0,"(1e-05, 0.0, 0.0, 0.0, 1e-05, 0.0, 0.0, 0.0, 1e-05)",0.0,-0.669921875,9.77607421875,"(0.01, 0.0, 0.0, 0.0, 0.01, 0.0, 0.0, 0.0, 0.01)"
2025/06/01/05:05:43.182633,205,1748754343,182213690,imu_link,-0.026087580933732785,0.021633585286273797,-0.6520151557451517,0.7574481254761364,"(0.001, 0.0, 0.0, 0.0, 0.001, 0.0, 0.0, 0.0, 0.001)",0.0,0.0,0.0,"(1e-05, 0.0, 0.0, 0.0, 1e-05, 0.0, 0.0, 0.0, 1e-05)",0.0,-0.669921875,9.77607421875,"(0.01, 0.0, 0.0, 0.0, 0.01, 0.0, 0.0, 0.0, 0.01)"
2025/06/01/05:05:43.196517,206,1748754343,196138328,imu_link,-0.026087580933732785,0.021633585286273797,-0.6520151557451517,0.7574481254761364,"(0.001, 0.0, 0.0, 0.0, 0.001, 0.0, 0.0, 0.0, 0.001)",0.0,0.0,0.0,"(1e-05, 0.0, 0.0, 0.0, 1e-05, 0.0, 0.0, 0.0, 1e-05)",0.0,-0.669921875,9.77607421875,"(0.01, 0.0, 0.0, 0.0, 0.01, 0.0, 0.0, 0.0, 0.01)"
2025/06/01/05:05:43.233047,207,1748754343,232413369,imu_link,-0.026087580933732785,0.021633585286273797,-0.6520151557451517,0.7574481254761364,"(0.001, 0.0, 0.0, 0.0, 0.001, 0.0, 0.0, 0.0, 0.001)",0.0,0.0,0.0,"(1e-05, 0.0, 0.0, 0.0, 1e-05, 0.0, 0.0, 0.0, 1e-05)",0.0,-0.669921875,9.77607421875,"(0.01, 0.0, 0.0, 0.0, 0.01, 0.0, 0.0, 0.0, 0.01)"
2025/06/01/05:05:43.282862,208,1748754343,282545512,imu_link,-0.026087580933732785,0.021633585286273797,-0.6520151557451517,0.7574481254761364,"(0.001, 0.0, 0.0, 0.0, 0.001, 0.0, 0.0, 0.0, 0.001)",0.0,0.0,0.0,"(1e-05, 0.0, 0.0, 0.0, 1e-05, 0.0, 0.0, 0.0, 1e-05)",0.00478515625,-0.669921875,9.77607421875,"(0.01, 0.0, 0.0, 0.0, 0.01, 0.0, 0.0, 0.0, 0.01)"
2025/06/01/05:05:43.296619,209,1748754343,296151252,imu_link,-0.026087580933732785,0.021633585286273797,-0.6520151557451517,0.7574481254761364,"(0.001, 0.0, 0.0, 0.0, 0.001, 0.0, 0.0, 0.0, 0.001)",0.0,0.0,0.0,"(1e-05, 0.0, 0.0, 0.0, 1e-05, 0.0, 0.0, 0.0, 1e-05)",0.00478515625,-0.669921875,9.77607421875,"(0.01, 0.0, 0.0, 0.0, 0.01, 0.0, 0.0, 0.0, 0.01)"
2025/06/01/05:05:43.333369,210,1748754343,332830458,imu_link,-0.026087580933732785,0.021633585286273797,-0.6520151557451517,0.7574481254761364,"(0.001, 0.0, 0.0, 0.0, 0.001, 0.0, 0.0, 0.0, 0.001)",0.0,0.0,0.0,"(1e-05, 0.0, 0.0, 0.0, 1e-05, 0.0, 0.0, 0.0, 1e-05)",0.0,-0.669921875,9.77607421875,"(0.01, 0.0, 0.0, 0.0, 0.01, 0.0, 0.0, 0.0, 0.01)"
2025/06/01/05:05:43.383635,211,1748754343,383157420,imu_link,-0.026087580933732785,0.021633585286273797,-0.6520151557451517,0.7574481254761364,"(0.001, 0.0, 0.0, 0.0, 0.001, 0.0, 0.0, 0.0, 0.001)",0.0,0.0,0.0,"(1e-05, 0.0, 0.0, 0.0, 1e-05, 0.0, 0.0, 0.0, 1e-05)",0.0,-0.669921875,9.77607421875,"(0.01, 0.0, 0.0, 0.0, 0.01, 0.0, 0.0, 0.0, 0.01)"
2025/06/01/05:05:43.396553,212,1748754343,396144350,imu_link,-0.026087580933732785,0.021633585286273797,-0.6520151557451517,0.7574481254761364,"(0.001, 0.0, 0.0, 0.0, 0.001, 0.0, 0.0, 0.0, 0.001)",0.0,0.0,0.0,"(1e-05, 0.0, 0.0, 0.0, 1e-05, 0.0, 0.0, 0.0, 1e-05)",0.0,-0.669921875,9.77607421875,"(0.01, 0.0, 0.0, 0.0, 0.01, 0.0, 0.0, 0.0, 0.01)"
2025/06/01/05:05:43.433777,213,1748754343,433376584,imu_link,-0.026087580933732785,0.021633585286273797,-0.6520151557451517,0.7574481254761364,"(0.001, 0.0, 0.0, 0.0, 0.001, 0.0, 0.0, 0.0, 0.001)",0.0,0.0,0.0,"(1e-05, 0.0, 0.0, 0.0, 1e-05, 0.0, 0.0, 0.0, 1e-05)",0.0,-0.669921875,9.77607421875,"(0.01, 0.0, 0.0, 0.0, 0.01, 0.0, 0.0, 0.0, 0.01)"
2025/06/01/05:05:43.484361,214,1748754343,483893758,imu_link,-0.026087580933732785,0.021633585286273797,-0.6520151557451517,0.7574481254761364,"(0.001, 0.0, 0.0, 0.0, 0.001, 0.0, 0.0, 0.0, 0.001)",0.0,0.0,0.0,"(1e-05, 0.0, 0.0, 0.0, 1e-05, 0.0, 0.0, 0.0, 1e-05)",0.0,-0.669921875,9.77607421875,"(0.01, 0.0, 0.0, 0.0, 0.01, 0.0, 0.0, 0.0, 0.01)"
2025/06/01/05:05:43.496881,215,1748754343,496356882,imu_link,-0.026087580933732785,0.021633585286273797,-0.6520151557451517,0.7574481254761364,"(0.001, 0.0, 0.0, 0.0, 0.001, 0.0, 0.0, 0.0, 0.001)",0.0,0.0,0.0,"(1e-05, 0.0, 0.0, 0.0, 1e-05, 0.0, 0.0, 0.0, 1e-05)",0.0,-0.669921875,9.77607421875,"(0.01, 0.0, 0.0, 0.0, 0.01, 0.0, 0.0, 0.0, 0.01)"
2025/06/01/05:05:43.534286,216,1748754343,533918504,imu_link,-0.026087580933732785,0.021633585286273797,-0.6520151557451517,0.7574481254761364,"(0.001, 0.0, 0.0, 0.0, 0.001, 0.0, 0.0, 0.0, 0.001)",0.0,0.0,0.0,"(1e-05, 0.0, 0.0, 0.0, 1e-05, 0.0, 0.0, 0.0, 1e-05)",0.00478515625,-0.669921875,9.77607421875,"(0.01, 0.0, 0.0, 0.0, 0.01, 0.0, 0.0, 0.0, 0.01)"
2025/06/01/05:05:43.584870,217,1748754343,584406183,imu_link,-0.026087580933732785,0.021633585286273797,-0.6520151557451517,0.7574481254761364,"(0.001, 0.0, 0.0, 0.0, 0.001, 0.0, 0.0, 0.0, 0.001)",0.0,0.0,0.0,"(1e-05, 0.0, 0.0, 0.0, 1e-05, 0.0, 0.0, 0.0, 1e-05)",0.0,-0.669921875,9.77607421875,"(0.01, 0.0, 0.0, 0.0, 0.01, 0.0, 0.0, 0.0, 0.01)"
2025/06/01/05:05:43.596757,218,1748754343,596344711,imu_link,-0.026087580933732785,0.021633585286273797,-0.6520151557451517,0.7574481254761364,"(0.001, 0.0, 0.0, 0.0, 0.001, 0.0, 0.0, 0.0, 0.001)",0.0,0.0,0.0,"(1e-05, 0.0, 0.0, 0.0, 1e-05, 0.0, 0.0, 0.0, 1e-05)",0.0,-0.669921875,9.77607421875,"(0.01, 0.0, 0.0, 0.0, 0.01, 0.0, 0.0, 0.0, 0.01)"
2025/06/01/05:05:43.634800,219,1748754343,634388270,imu_link,-0.026087580933732785,0.021633585286273797,-0.6520151557451517,0.7574481254761364,"(0.001, 0.0, 0.0, 0.0, 0.001, 0.0, 0.0, 0.0, 0.001)",0.0,0.0,0.0,"(1e-05, 0.0, 0.0, 0.0, 1e-05, 0.0, 0.0, 0.0, 1e-05)",0.0,-0.669921875,9.77607421875,"(0.01, 0.0, 0.0, 0.0, 0.01, 0.0, 0.0, 0.0, 0.01)"
2025/06/01/05:05:43.685336,220,1748754343,684921523,imu_link,-0.026087580933732785,0.021633585286273797,-0.6520151557451517,0.7574481254761364,"(0.001, 0.0, 0.0, 0.0, 0.001, 0.0, 0.0, 0.0, 0.001)",0.0,0.0,0.0,"(1e-05, 0.0, 0.0, 0.0, 1e-05, 0.0, 0.0, 0.0, 1e-05)",0.0,-0.669921875,9.77607421875,"(0.01, 0.0, 0.0, 0.0, 0.01, 0.0, 0.0, 0.0, 0.01)"
2025/06/01/05:05:43.696544,221,1748754343,696164970,imu_link,-0.026087580933732785,0.021633585286273797,-0.6520151557451517,0.7574481254761364,"(0.001, 0.0, 0.0, 0.0, 0.001, 0.0, 0.0, 0.0, 0.001)",0.0,0.0,0.0,"(1e-05, 0.0, 0.0, 0.0, 1e-05, 0.0, 0.0, 0.0, 1e-05)",0.0,-0.669921875,9.77607421875,"(0.01, 0.0, 0.0, 0.0, 0.01, 0.0, 0.0, 0.0, 0.01)"
2025/06/01/05:05:43.735254,222,1748754343,734899212,imu_link,-0.026087580933732785,0.021633585286273797,-0.6520151557451517,0.7574481254761364,"(0.001, 0.0, 0.0, 0.0, 0.001, 0.0, 0.0, 0.0, 0.001)",0.0,0.0,0.0,"(1e-05, 0.0, 0.0, 0.0, 1e-05, 0.0, 0.0, 0.0, 1e-05)",0.00478515625,-0.669921875,9.77607421875,"(0.01, 0.0, 0.0, 0.0, 0.01, 0.0, 0.0, 0.0, 0.01)"
2025/06/01/05:05:43.785721,223,1748754343,785314497,imu_link,-0.026087580933732785,0.021633585286273797,-0.6520151557451517,0.7574481254761364,"(0.001, 0.0, 0.0, 0.0, 0.001, 0.0, 0.0, 0.0, 0.001)",0.0,0.0,0.0,"(1e-05, 0.0, 0.0, 0.0, 1e-05, 0.0, 0.0, 0.0, 1e-05)",0.00478515625,-0.66513671875,9.77607421875,"(0.01, 0.0, 0.0, 0.0, 0.01, 0.0, 0.0, 0.0, 0.01)"
2025/06/01/05:05:43.796568,224,1748754343,796162436,imu_link,-0.026087580933732785,0.021633585286273797,-0.6520151557451517,0.7574481254761364,"(0.001, 0.0, 0.0, 0.0, 0.001, 0.0, 0.0, 0.0, 0.001)",0.0,0.0,0.0,"(1e-05, 0.0, 0.0, 0.0, 1e-05, 0.0, 0.0, 0.0, 1e-05)",0.00478515625,-0.66513671875,9.77607421875,"(0.01, 0.0, 0.0, 0.0, 0.01, 0.0, 0.0, 0.0, 0.01)"
2025/06/01/05:05:43.835745,225,1748754343,835359791,imu_link,-0.026087580933732785,0.021633585286273797,-0.6520151557451517,0.7574481254761364,"(0.001, 0.0, 0.0, 0.0, 0.001, 0.0, 0.0, 0.0, 0.001)",0.0,0.0,0.0,"(1e-05, 0.0, 0.0, 0.0, 1e-05, 0.0, 0.0, 0.0, 1e-05)",0.0,-0.669921875,9.77607421875,"(0.01, 0.0, 0.0, 0.0, 0.01, 0.0, 0.0, 0.0, 0.01)"
2025/06/01/05:05:43.886333,226,1748754343,885883186,imu_link,-0.026087580933732785,0.021633585286273797,-0.6520151557451517,0.7574481254761364,"(0.001, 0.0, 0.0, 0.0, 0.001, 0.0, 0.0, 0.0, 0.001)",0.0,0.0,0.0,"(1e-05, 0.0, 0.0, 0.0, 1e-05, 0.0, 0.0, 0.0, 1e-05)",0.0,-0.669921875,9.77607421875,"(0.01, 0.0, 0.0, 0.0, 0.01, 0.0, 0.0, 0.0, 0.01)"
2025/06/01/05:05:43.896517,227,1748754343,896136990,imu_link,-0.026087580933732785,0.021633585286273797,-0.6520151557451517,0.7574481254761364,"(0.001, 0.0, 0.0, 0.0, 0.001, 0.0, 0.0, 0.0, 0.001)",0.0,0.0,0.0,"(1e-05, 0.0, 0.0, 0.0, 1e-05, 0.0, 0.0, 0.0, 1e-05)",0.0,-0.669921875,9.77607421875,"(0.01, 0.0, 0.0, 0.0, 0.01, 0.0, 0.0, 0.0, 0.01)"
2025/06/01/05:05:43.936362,228,1748754343,935965107,imu_link,-0.026087580933732785,0.021633585286273797,-0.6520151557451517,0.7574481254761364,"(0.001, 0.0, 0.0, 0.0, 0.001, 0.0, 0.0, 0.0, 0.001)",0.0,0.0,0.0,"(1e-05, 0.0, 0.0, 0.0, 1e-05, 0.0, 0.0, 0.0, 1e-05)",0.0,-0.669921875,9.77607421875,"(0.01, 0.0, 0.0, 0.0, 0.01, 0.0, 0.0, 0.0, 0.01)"
2025/06/01/05:05:43.986868,229,1748754343,986422510,imu_link,-0.026087580933732785,0.021633585286273797,-0.6520151557451517,0.7574481254761364,"(0.001, 0.0, 0.0, 0.0, 0.001, 0.0, 0.0, 0.0, 0.001)",0.0,0.0,0.0,"(1e-05, 0.0, 0.0, 0.0, 1e-05, 0.0, 0.0, 0.0, 1e-05)",0.00478515625,-0.669921875,9.77607421875,"(0.01, 0.0, 0.0, 0.0, 0.01, 0.0, 0.0, 0.0, 0.01)"
2025/06/01/05:05:43.996838,230,1748754343,996344683,imu_link,-0.026087580933732785,0.021633585286273797,-0.6520151557451517,0.7574481254761364,"(0.001, 0.0, 0.0, 0.0, 0.001, 0.0, 0.0, 0.0, 0.001)",0.0,0.0,0.0,"(1e-05, 0.0, 0.0, 0.0, 1e-05, 0.0, 0.0, 0.0, 1e-05)",0.00478515625,-0.669921875,9.77607421875,"(0.01, 0.0, 0.0, 0.0, 0.01, 0.0, 0.0, 0.0, 0.01)"
2025/06/01/05:05:44.036728,231,1748754344,36365085,imu_link,-0.026087580933732785,0.021633585286273797,-0.6520151557451517,0.7574481254761364,"(0.001, 0.0, 0.0, 0.0, 0.001, 0.0, 0.0, 0.0, 0.001)",0.0,0.0,0.0,"(1e-05, 0.0, 0.0, 0.0, 1e-05, 0.0, 0.0, 0.0, 1e-05)",0.0,-0.66513671875,9.771289062500001,"(0.01, 0.0, 0.0, 0.0, 0.01, 0.0, 0.0, 0.0, 0.01)"
2025/06/01/05:05:44.086951,232,1748754344,86594012,imu_link,-0.026087580933732785,0.021633585286273797,-0.6520151557451517,0.7574481254761364,"(0.001, 0.0, 0.0, 0.0, 0.001, 0.0, 0.0, 0.0, 0.001)",0.0,0.0,0.0,"(1e-05, 0.0, 0.0, 0.0, 1e-05, 0.0, 0.0, 0.0, 1e-05)",0.0,-0.66513671875,9.780859375,"(0.01, 0.0, 0.0, 0.0, 0.01, 0.0, 0.0, 0.0, 0.01)"
2025/06/01/05:05:44.096550,233,1748754344,96118014,imu_link,-0.026087580933732785,0.021633585286273797,-0.6520151557451517,0.7574481254761364,"(0.001, 0.0, 0.0, 0.0, 0.001, 0.0, 0.0, 0.0, 0.001)",0.0,0.0,0.0,"(1e-05, 0.0, 0.0, 0.0, 1e-05, 0.0, 0.0, 0.0, 1e-05)",0.0,-0.66513671875,9.780859375,"(0.01, 0.0, 0.0, 0.0, 0.01, 0.0, 0.0, 0.0, 0.01)"
2025/06/01/05:05:44.137402,234,1748754344,136885205,imu_link,-0.026087580933732785,0.021633585286273797,-0.6520151557451517,0.7574481254761364,"(0.001, 0.0, 0.0, 0.0, 0.001, 0.0, 0.0, 0.0, 0.001)",0.0,0.0,0.0,"(1e-05, 0.0, 0.0, 0.0, 1e-05, 0.0, 0.0, 0.0, 1e-05)",0.0,-0.6794921875000001,9.78564453125,"(0.01, 0.0, 0.0, 0.0, 0.01, 0.0, 0.0, 0.0, 0.01)"
2025/06/01/05:05:44.187251,235,1748754344,186961922,imu_link,-0.026087580933732785,0.021633585286273797,-0.6520151557451517,0.7574481254761364,"(0.001, 0.0, 0.0, 0.0, 0.001, 0.0, 0.0, 0.0, 0.001)",0.0,0.0,0.0,"(1e-05, 0.0, 0.0, 0.0, 1e-05, 0.0, 0.0, 0.0, 1e-05)",0.0,-0.6603515625,9.766503906250001,"(0.01, 0.0, 0.0, 0.0, 0.01, 0.0, 0.0, 0.0, 0.01)"
2025/06/01/05:05:44.196568,236,1748754344,196142781,imu_link,-0.026087580933732785,0.021633585286273797,-0.6520151557451517,0.7574481254761364,"(0.001, 0.0, 0.0, 0.0, 0.001, 0.0, 0.0, 0.0, 0.001)",0.0,0.0,0.0,"(1e-05, 0.0, 0.0, 0.0, 1e-05, 0.0, 0.0, 0.0, 1e-05)",0.0,-0.6603515625,9.766503906250001,"(0.01, 0.0, 0.0, 0.0, 0.01, 0.0, 0.0, 0.0, 0.01)"
2025/06/01/05:05:44.237667,237,1748754344,237296213,imu_link,-0.026087580933732785,0.021633585286273797,-0.6520151557451517,0.7574481254761364,"(0.001, 0.0, 0.0, 0.0, 0.001, 0.0, 0.0, 0.0, 0.001)",0.0,0.0,0.0,"(1e-05, 0.0, 0.0, 0.0, 1e-05, 0.0, 0.0, 0.0, 1e-05)",0.0095703125,-0.6747070312500001,9.780859375,"(0.01, 0.0, 0.0, 0.0, 0.01, 0.0, 0.0, 0.0, 0.01)"
2025/06/01/05:05:44.288131,238,1748754344,287758180,imu_link,-0.026087580933732785,0.021633585286273797,-0.6520151557451517,0.7574481254761364,"(0.001, 0.0, 0.0, 0.0, 0.001, 0.0, 0.0, 0.0, 0.001)",0.0,0.0,0.0,"(1e-05, 0.0, 0.0, 0.0, 1e-05, 0.0, 0.0, 0.0, 1e-05)",0.0,-0.669921875,9.77607421875,"(0.01, 0.0, 0.0, 0.0, 0.01, 0.0, 0.0, 0.0, 0.01)"
2025/06/01/05:05:44.296740,239,1748754344,296172747,imu_link,-0.026087580933732785,0.021633585286273797,-0.6520151557451517,0.7574481254761364,"(0.001, 0.0, 0.0, 0.0, 0.001, 0.0, 0.0, 0.0, 0.001)",0.0,0.0,0.0,"(1e-05, 0.0, 0.0, 0.0, 1e-05, 0.0, 0.0, 0.0, 1e-05)",0.0,-0.669921875,9.77607421875,"(0.01, 0.0, 0.0, 0.0, 0.01, 0.0, 0.0, 0.0, 0.01)"
2025/06/01/05:05:44.338275,240,1748754344,337879178,imu_link,-0.026087580933732785,0.021633585286273797,-0.6520151557451517,0.7574481254761364,"(0.001, 0.0, 0.0, 0.0, 0.001, 0.0, 0.0, 0.0, 0.001)",0.0,0.0,0.0,"(1e-05, 0.0, 0.0, 0.0, 1e-05, 0.0, 0.0, 0.0, 1e-05)",0.0,-0.6603515625,9.771289062500001,"(0.01, 0.0, 0.0, 0.0, 0.01, 0.0, 0.0, 0.0, 0.01)"
2025/06/01/05:05:44.388427,241,1748754344,388063644,imu_link,-0.026087580933732785,0.021633585286273797,-0.6520151557451517,0.7574481254761364,"(0.001, 0.0, 0.0, 0.0, 0.001, 0.0, 0.0, 0.0, 0.001)",0.0,0.0,0.0,"(1e-05, 0.0, 0.0, 0.0, 1e-05, 0.0, 0.0, 0.0, 1e-05)",0.0,-0.6747070312500001,9.780859375,"(0.01, 0.0, 0.0, 0.0, 0.01, 0.0, 0.0, 0.0, 0.01)"
2025/06/01/05:05:44.396515,242,1748754344,396136051,imu_link,-0.026087580933732785,0.021633585286273797,-0.6520151557451517,0.7574481254761364,"(0.001, 0.0, 0.0, 0.0, 0.001, 0.0, 0.0, 0.0, 0.001)",0.0,0.0,0.0,"(1e-05, 0.0, 0.0, 0.0, 1e-05, 0.0, 0.0, 0.0, 1e-05)",0.0,-0.6747070312500001,9.780859375,"(0.01, 0.0, 0.0, 0.0, 0.01, 0.0, 0.0, 0.0, 0.01)"
2025/06/01/05:05:44.438668,243,1748754344,438325462,imu_link,-0.026087580933732785,0.021633585286273797,-0.6520151557451517,0.7574481254761364,"(0.001, 0.0, 0.0, 0.0, 0.001, 0.0, 0.0, 0.0, 0.001)",0.0,0.0,0.0,"(1e-05, 0.0, 0.0, 0.0, 1e-05, 0.0, 0.0, 0.0, 1e-05)",0.0,-0.669921875,9.77607421875,"(0.01, 0.0, 0.0, 0.0, 0.01, 0.0, 0.0, 0.0, 0.01)"
2025/06/01/05:05:44.488978,244,1748754344,488585697,imu_link,-0.026087580933732785,0.021633585286273797,-0.6520151557451517,0.7574481254761364,"(0.001, 0.0, 0.0, 0.0, 0.001, 0.0, 0.0, 0.0, 0.001)",0.0,0.0,0.0,"(1e-05, 0.0, 0.0, 0.0, 1e-05, 0.0, 0.0, 0.0, 1e-05)",0.00478515625,-0.669921875,9.77607421875,"(0.01, 0.0, 0.0, 0.0, 0.01, 0.0, 0.0, 0.0, 0.01)"
2025/06/01/05:05:44.496494,245,1748754344,496133577,imu_link,-0.026087580933732785,0.021633585286273797,-0.6520151557451517,0.7574481254761364,"(0.001, 0.0, 0.0, 0.0, 0.001, 0.0, 0.0, 0.0, 0.001)",0.0,0.0,0.0,"(1e-05, 0.0, 0.0, 0.0, 1e-05, 0.0, 0.0, 0.0, 1e-05)",0.00478515625,-0.669921875,9.77607421875,"(0.01, 0.0, 0.0, 0.0, 0.01, 0.0, 0.0, 0.0, 0.01)"
2025/06/01/05:05:44.539402,246,1748754344,538977083,imu_link,-0.026087580933732785,0.021633585286273797,-0.6520151557451517,0.7574481254761364,"(0.001, 0.0, 0.0, 0.0, 0.001, 0.0, 0.0, 0.0, 0.001)",0.0,0.0,0.0,"(1e-05, 0.0, 0.0, 0.0, 1e-05, 0.0, 0.0, 0.0, 1e-05)",0.00478515625,-0.6747070312500001,9.77607421875,"(0.01, 0.0, 0.0, 0.0, 0.01, 0.0, 0.0, 0.0, 0.01)"
2025/06/01/05:05:44.589501,247,1748754344,589107920,imu_link,-0.026087580933732785,0.021633585286273797,-0.6520151557451517,0.7574481254761364,"(0.001, 0.0, 0.0, 0.0, 0.001, 0.0, 0.0, 0.0, 0.001)",0.0,0.0,0.0,"(1e-05, 0.0, 0.0, 0.0, 1e-05, 0.0, 0.0, 0.0, 1e-05)",0.0,-0.66513671875,9.771289062500001,"(0.01, 0.0, 0.0, 0.0, 0.01, 0.0, 0.0, 0.0, 0.01)"
2025/06/01/05:05:44.596412,248,1748754344,596125022,imu_link,-0.026087580933732785,0.021633585286273797,-0.6520151557451517,0.7574481254761364,"(0.001, 0.0, 0.0, 0.0, 0.001, 0.0, 0.0, 0.0, 0.001)",0.0,0.0,0.0,"(1e-05, 0.0, 0.0, 0.0, 1e-05, 0.0, 0.0, 0.0, 1e-05)",0.0,-0.66513671875,9.771289062500001,"(0.01, 0.0, 0.0, 0.0, 0.01, 0.0, 0.0, 0.0, 0.01)"
2025/06/01/05:05:44.639897,249,1748754344,639397149,imu_link,-0.026087580933732785,0.021633585286273797,-0.6520151557451517,0.7574481254761364,"(0.001, 0.0, 0.0, 0.0, 0.001, 0.0, 0.0, 0.0, 0.001)",0.0,0.0,0.0,"(1e-05, 0.0, 0.0, 0.0, 1e-05, 0.0, 0.0, 0.0, 1e-05)",0.0,-0.6747070312500001,9.77607421875,"(0.01, 0.0, 0.0, 0.0, 0.01, 0.0, 0.0, 0.0, 0.01)"
2025/06/01/05:05:44.689962,250,1748754344,689572848,imu_link,-0.026087580933732785,0.021633585286273797,-0.6520151557451517,0.7574481254761364,"(0.001, 0.0, 0.0, 0.0, 0.001, 0.0, 0.0, 0.0, 0.001)",0.0,0.0,0.0,"(1e-05, 0.0, 0.0, 0.0, 1e-05, 0.0, 0.0, 0.0, 1e-05)",0.0,-0.669921875,9.77607421875,"(0.01, 0.0, 0.0, 0.0, 0.01, 0.0, 0.0, 0.0, 0.01)"
2025/06/01/05:05:44.696538,251,1748754344,696148386,imu_link,-0.026087580933732785,0.021633585286273797,-0.6520151557451517,0.7574481254761364,"(0.001, 0.0, 0.0, 0.0, 0.001, 0.0, 0.0, 0.0, 0.001)",0.0,0.0,0.0,"(1e-05, 0.0, 0.0, 0.0, 1e-05, 0.0, 0.0, 0.0, 1e-05)",0.0,-0.669921875,9.77607421875,"(0.01, 0.0, 0.0, 0.0, 0.01, 0.0, 0.0, 0.0, 0.01)"
2025/06/01/05:05:44.740173,252,1748754344,739801514,imu_link,-0.026087580933732785,0.021633585286273797,-0.6520151557451517,0.7574481254761364,"(0.001, 0.0, 0.0, 0.0, 0.001, 0.0, 0.0, 0.0, 0.001)",0.0,0.0,0.0,"(1e-05, 0.0, 0.0, 0.0, 1e-05, 0.0, 0.0, 0.0, 1e-05)",0.00478515625,-0.669921875,9.77607421875,"(0.01, 0.0, 0.0, 0.0, 0.01, 0.0, 0.0, 0.0, 0.01)"
2025/06/01/05:05:44.790351,253,1748754344,790003983,imu_link,-0.026087580933732785,0.021633585286273797,-0.6520151557451517,0.7574481254761364,"(0.001, 0.0, 0.0, 0.0, 0.001, 0.0, 0.0, 0.0, 0.001)",0.0,0.0,0.0,"(1e-05, 0.0, 0.0, 0.0, 1e-05, 0.0, 0.0, 0.0, 1e-05)",0.0,-0.66513671875,9.77607421875,"(0.01, 0.0, 0.0, 0.0, 0.01, 0.0, 0.0, 0.0, 0.01)"
2025/06/01/05:05:44.796569,254,1748754344,796143688,imu_link,-0.026087580933732785,0.021633585286273797,-0.6520151557451517,0.7574481254761364,"(0.001, 0.0, 0.0, 0.0, 0.001, 0.0, 0.0, 0.0, 0.001)",0.0,0.0,0.0,"(1e-05, 0.0, 0.0, 0.0, 1e-05, 0.0, 0.0, 0.0, 1e-05)",0.0,-0.66513671875,9.77607421875,"(0.01, 0.0, 0.0, 0.0, 0.01, 0.0, 0.0, 0.0, 0.01)"
2025/06/01/05:05:44.840628,255,1748754344,840286089,imu_link,-0.026087580933732785,0.021633585286273797,-0.6520151557451517,0.7574481254761364,"(0.001, 0.0, 0.0, 0.0, 0.001, 0.0, 0.0, 0.0, 0.001)",0.0,0.0,0.0,"(1e-05, 0.0, 0.0, 0.0, 1e-05, 0.0, 0.0, 0.0, 1e-05)",0.0,-0.6747070312500001,9.77607421875,"(0.01, 0.0, 0.0, 0.0, 0.01, 0.0, 0.0, 0.0, 0.01)"
2025/06/01/05:05:44.891150,256,1748754344,890738317,imu_link,-0.026087580933732785,0.021633585286273797,-0.6520151557451517,0.7574481254761364,"(0.001, 0.0, 0.0, 0.0, 0.001, 0.0, 0.0, 0.0, 0.001)",0.0,0.0,0.0,"(1e-05, 0.0, 0.0, 0.0, 1e-05, 0.0, 0.0, 0.0, 1e-05)",0.0,-0.66513671875,9.771289062500001,"(0.01, 0.0, 0.0, 0.0, 0.01, 0.0, 0.0, 0.0, 0.01)"
2025/06/01/05:05:44.896590,257,1748754344,896149099,imu_link,-0.026087580933732785,0.021633585286273797,-0.6520151557451517,0.7574481254761364,"(0.001, 0.0, 0.0, 0.0, 0.001, 0.0, 0.0, 0.0, 0.001)",0.0,0.0,0.0,"(1e-05, 0.0, 0.0, 0.0, 1e-05, 0.0, 0.0, 0.0, 1e-05)",0.0,-0.66513671875,9.771289062500001,"(0.01, 0.0, 0.0, 0.0, 0.01, 0.0, 0.0, 0.0, 0.01)"
2025/06/01/05:05:44.941280,258,1748754344,940870176,imu_link,-0.026087580933732785,0.021633585286273797,-0.6520151557451517,0.7574481254761364,"(0.001, 0.0, 0.0, 0.0, 0.001, 0.0, 0.0, 0.0, 0.001)",0.0,0.0,0.0,"(1e-05, 0.0, 0.0, 0.0, 1e-05, 0.0, 0.0, 0.0, 1e-05)",-0.02392578125,-0.6555664062500001,9.78564453125,"(0.01, 0.0, 0.0, 0.0, 0.01, 0.0, 0.0, 0.0, 0.01)"
2025/06/01/05:05:44.991555,259,1748754344,991139037,imu_link,-0.026087580933732785,0.021633585286273797,-0.6520151557451517,0.7574481254761364,"(0.001, 0.0, 0.0, 0.0, 0.001, 0.0, 0.0, 0.0, 0.001)",0.0,0.0,0.0,"(1e-05, 0.0, 0.0, 0.0, 1e-05, 0.0, 0.0, 0.0, 1e-05)",0.014355468750000001,-0.6747070312500001,9.77607421875,"(0.01, 0.0, 0.0, 0.0, 0.01, 0.0, 0.0, 0.0, 0.01)"
2025/06/01/05:05:44.996830,260,1748754344,996303204,imu_link,-0.026087580933732785,0.021633585286273797,-0.6520151557451517,0.7574481254761364,"(0.001, 0.0, 0.0, 0.0, 0.001, 0.0, 0.0, 0.0, 0.001)",0.0,0.0,0.0,"(1e-05, 0.0, 0.0, 0.0, 1e-05, 0.0, 0.0, 0.0, 1e-05)",0.014355468750000001,-0.6747070312500001,9.77607421875,"(0.01, 0.0, 0.0, 0.0, 0.01, 0.0, 0.0, 0.0, 0.01)"
2025/06/01/05:05:45.041676,261,1748754345,41255369,imu_link,-0.026087580933732785,0.021633585286273797,-0.6520151557451517,0.7574481254761364,"(0.001, 0.0, 0.0, 0.0, 0.001, 0.0, 0.0, 0.0, 0.001)",0.0,0.0,0.0,"(1e-05, 0.0, 0.0, 0.0, 1e-05, 0.0, 0.0, 0.0, 1e-05)",0.014355468750000001,-0.6603515625,9.77607421875,"(0.01, 0.0, 0.0, 0.0, 0.01, 0.0, 0.0, 0.0, 0.01)"
2025/06/01/05:05:45.092226,262,1748754345,91795055,imu_link,-0.026087580933732785,0.021633585286273797,-0.6520151557451517,0.7574481254761364,"(0.001, 0.0, 0.0, 0.0, 0.001, 0.0, 0.0, 0.0, 0.001)",0.0,0.0,0.0,"(1e-05, 0.0, 0.0, 0.0, 1e-05, 0.0, 0.0, 0.0, 1e-05)",0.0,-0.6747070312500001,9.77607421875,"(0.01, 0.0, 0.0, 0.0, 0.01, 0.0, 0.0, 0.0, 0.01)"
2025/06/01/05:05:45.096650,263,1748754345,96195736,imu_link,-0.026087580933732785,0.021633585286273797,-0.6520151557451517,0.7574481254761364,"(0.001, 0.0, 0.0, 0.0, 0.001, 0.0, 0.0, 0.0, 0.001)",0.0,0.0,0.0,"(1e-05, 0.0, 0.0, 0.0, 1e-05, 0.0, 0.0, 0.0, 1e-05)",0.0,-0.6747070312500001,9.77607421875,"(0.01, 0.0, 0.0, 0.0, 0.01, 0.0, 0.0, 0.0, 0.01)"
2025/06/01/05:05:45.142185,264,1748754345,141778244,imu_link,-0.026087580933732785,0.021633585286273797,-0.6520151557451517,0.7574481254761364,"(0.001, 0.0, 0.0, 0.0, 0.001, 0.0, 0.0, 0.0, 0.001)",0.0,0.0,0.0,"(1e-05, 0.0, 0.0, 0.0, 1e-05, 0.0, 0.0, 0.0, 1e-05)",0.0,-0.6747070312500001,9.780859375,"(0.01, 0.0, 0.0, 0.0, 0.01, 0.0, 0.0, 0.0, 0.01)"
2025/06/01/05:05:45.192484,265,1748754345,192058111,imu_link,-0.026087580933732785,0.021633585286273797,-0.6520151557451517,0.7574481254761364,"(0.001, 0.0, 0.0, 0.0, 0.001, 0.0, 0.0, 0.0, 0.001)",0.0,0.0,0.0,"(1e-05, 0.0, 0.0, 0.0, 1e-05, 0.0, 0.0, 0.0, 1e-05)",0.00478515625,-0.66513671875,9.771289062500001,"(0.01, 0.0, 0.0, 0.0, 0.01, 0.0, 0.0, 0.0, 0.01)"
2025/06/01/05:05:45.196602,266,1748754345,196145344,imu_link,-0.026087580933732785,0.021633585286273797,-0.6520151557451517,0.7574481254761364,"(0.001, 0.0, 0.0, 0.0, 0.001, 0.0, 0.0, 0.0, 0.001)",0.0,0.0,0.0,"(1e-05, 0.0, 0.0, 0.0, 1e-05, 0.0, 0.0, 0.0, 1e-05)",0.00478515625,-0.66513671875,9.771289062500001,"(0.01, 0.0, 0.0, 0.0, 0.01, 0.0, 0.0, 0.0, 0.01)"
2025/06/01/05:05:45.242619,267,1748754345,242232563,imu_link,-0.026087580933732785,0.021633585286273797,-0.6520151557451517,0.7574481254761364,"(0.001, 0.0, 0.0, 0.0, 0.001, 0.0, 0.0, 0.0, 0.001)",0.0,0.0,0.0,"(1e-05, 0.0, 0.0, 0.0, 1e-05, 0.0, 0.0, 0.0, 1e-05)",0.00478515625,-0.669921875,9.78564453125,"(0.01, 0.0, 0.0, 0.0, 0.01, 0.0, 0.0, 0.0, 0.01)"
2025/06/01/05:05:45.293218,268,1748754345,292805068,imu_link,-0.026087580933732785,0.021633585286273797,-0.6520151557451517,0.7574481254761364,"(0.001, 0.0, 0.0, 0.0, 0.001, 0.0, 0.0, 0.0, 0.001)",0.0,0.0,0.0,"(1e-05, 0.0, 0.0, 0.0, 1e-05, 0.0, 0.0, 0.0, 1e-05)",0.0,-0.669921875,9.77607421875,"(0.01, 0.0, 0.0, 0.0, 0.01, 0.0, 0.0, 0.0, 0.01)"
2025/06/01/05:05:45.296767,269,1748754345,296325297,imu_link,-0.026087580933732785,0.021633585286273797,-0.6520151557451517,0.7574481254761364,"(0.001, 0.0, 0.0, 0.0, 0.001, 0.0, 0.0, 0.0, 0.001)",0.0,0.0,0.0,"(1e-05, 0.0, 0.0, 0.0, 1e-05, 0.0, 0.0, 0.0, 1e-05)",0.0,-0.669921875,9.77607421875,"(0.01, 0.0, 0.0, 0.0, 0.01, 0.0, 0.0, 0.0, 0.01)"
2025/06/01/05:05:45.343256,270,1748754345,342877122,imu_link,-0.026087580933732785,0.021633585286273797,-0.6520151557451517,0.7574481254761364,"(0.001, 0.0, 0.0, 0.0, 0.001, 0.0, 0.0, 0.0, 0.001)",0.0,0.0,0.0,"(1e-05, 0.0, 0.0, 0.0, 1e-05, 0.0, 0.0, 0.0, 1e-05)",0.0,-0.669921875,9.77607421875,"(0.01, 0.0, 0.0, 0.0, 0.01, 0.0, 0.0, 0.0, 0.01)"
2025/06/01/05:05:45.393733,271,1748754345,393297096,imu_link,-0.026087580933732785,0.021633585286273797,-0.6520151557451517,0.7574481254761364,"(0.001, 0.0, 0.0, 0.0, 0.001, 0.0, 0.0, 0.0, 0.001)",0.0,0.0,0.0,"(1e-05, 0.0, 0.0, 0.0, 1e-05, 0.0, 0.0, 0.0, 1e-05)",0.00478515625,-0.6794921875000001,9.780859375,"(0.01, 0.0, 0.0, 0.0, 0.01, 0.0, 0.0, 0.0, 0.01)"
2025/06/01/05:05:45.396446,272,1748754345,396163770,imu_link,-0.026087580933732785,0.021633585286273797,-0.6520151557451517,0.7574481254761364,"(0.001, 0.0, 0.0, 0.0, 0.001, 0.0, 0.0, 0.0, 0.001)",0.0,0.0,0.0,"(1e-05, 0.0, 0.0, 0.0, 1e-05, 0.0, 0.0, 0.0, 1e-05)",0.00478515625,-0.6794921875000001,9.780859375,"(0.01, 0.0, 0.0, 0.0, 0.01, 0.0, 0.0, 0.0, 0.01)"
2025/06/01/05:05:45.443655,273,1748754345,443192133,imu_link,-0.026087580933732785,0.021633585286273797,-0.6520151557451517,0.7574481254761364,"(0.001, 0.0, 0.0, 0.0, 0.001, 0.0, 0.0, 0.0, 0.001)",0.0,0.0,0.0,"(1e-05, 0.0, 0.0, 0.0, 1e-05, 0.0, 0.0, 0.0, 1e-05)",0.00478515625,-0.6603515625,9.771289062500001,"(0.01, 0.0, 0.0, 0.0, 0.01, 0.0, 0.0, 0.0, 0.01)"
2025/06/01/05:05:45.494206,274,1748754345,493751345,imu_link,-0.026087580933732785,0.021633585286273797,-0.6520151557451517,0.7574481254761364,"(0.001, 0.0, 0.0, 0.0, 0.001, 0.0, 0.0, 0.0, 0.001)",0.0,0.0,0.0,"(1e-05, 0.0, 0.0, 0.0, 1e-05, 0.0, 0.0, 0.0, 1e-05)",0.00478515625,-0.66513671875,9.77607421875,"(0.01, 0.0, 0.0, 0.0, 0.01, 0.0, 0.0, 0.0, 0.01)"
2025/06/01/05:05:45.496605,275,1748754345,496141360,imu_link,-0.026087580933732785,0.021633585286273797,-0.6520151557451517,0.7574481254761364,"(0.001, 0.0, 0.0, 0.0, 0.001, 0.0, 0.0, 0.0, 0.001)",0.0,0.0,0.0,"(1e-05, 0.0, 0.0, 0.0, 1e-05, 0.0, 0.0, 0.0, 1e-05)",0.00478515625,-0.66513671875,9.77607421875,"(0.01, 0.0, 0.0, 0.0, 0.01, 0.0, 0.0, 0.0, 0.01)"
2025/06/01/05:05:45.544178,276,1748754345,543797611,imu_link,-0.026087580933732785,0.021633585286273797,-0.6520151557451517,0.7574481254761364,"(0.001, 0.0, 0.0, 0.0, 0.001, 0.0, 0.0, 0.0, 0.001)",0.0,0.0,0.0,"(1e-05, 0.0, 0.0, 0.0, 1e-05, 0.0, 0.0, 0.0, 1e-05)",0.00478515625,-0.6747070312500001,9.780859375,"(0.01, 0.0, 0.0, 0.0, 0.01, 0.0, 0.0, 0.0, 0.01)"
2025/06/01/05:05:45.594574,277,1748754345,594036231,imu_link,-0.026087580933732785,0.021633585286273797,-0.6520151557451517,0.7574481254761364,"(0.001, 0.0, 0.0, 0.0, 0.001, 0.0, 0.0, 0.0, 0.001)",0.0,0.0,0.0,"(1e-05, 0.0, 0.0, 0.0, 1e-05, 0.0, 0.0, 0.0, 1e-05)",0.0,-0.669921875,9.77607421875,"(0.01, 0.0, 0.0, 0.0, 0.01, 0.0, 0.0, 0.0, 0.01)"
2025/06/01/05:05:45.596551,278,1748754345,596148414,imu_link,-0.026087580933732785,0.021633585286273797,-0.6520151557451517,0.7574481254761364,"(0.001, 0.0, 0.0, 0.0, 0.001, 0.0, 0.0, 0.0, 0.001)",0.0,0.0,0.0,"(1e-05, 0.0, 0.0, 0.0, 1e-05, 0.0, 0.0, 0.0, 1e-05)",0.0,-0.669921875,9.77607421875,"(0.01, 0.0, 0.0, 0.0, 0.01, 0.0, 0.0, 0.0, 0.01)"
2025/06/01/05:05:45.644688,279,1748754345,644228496,imu_link,-0.026087580933732785,0.021633585286273797,-0.6520151557451517,0.7574481254761364,"(0.001, 0.0, 0.0, 0.0, 0.001, 0.0, 0.0, 0.0, 0.001)",0.0,0.0,0.0,"(1e-05, 0.0, 0.0, 0.0, 1e-05, 0.0, 0.0, 0.0, 1e-05)",0.0,-0.6747070312500001,9.77607421875,"(0.01, 0.0, 0.0, 0.0, 0.01, 0.0, 0.0, 0.0, 0.01)"
2025/06/01/05:05:45.695092,280,1748754345,694638823,imu_link,-0.026087580933732785,0.021633585286273797,-0.6520151557451517,0.7574481254761364,"(0.001, 0.0, 0.0, 0.0, 0.001, 0.0, 0.0, 0.0, 0.001)",0.0,0.0,0.0,"(1e-05, 0.0, 0.0, 0.0, 1e-05, 0.0, 0.0, 0.0, 1e-05)",0.00478515625,-0.6747070312500001,9.780859375,"(0.01, 0.0, 0.0, 0.0, 0.01, 0.0, 0.0, 0.0, 0.01)"
2025/06/01/05:05:45.696434,281,1748754345,696154606,imu_link,-0.026087580933732785,0.021633585286273797,-0.6520151557451517,0.7574481254761364,"(0.001, 0.0, 0.0, 0.0, 0.001, 0.0, 0.0, 0.0, 0.001)",0.0,0.0,0.0,"(1e-05, 0.0, 0.0, 0.0, 1e-05, 0.0, 0.0, 0.0, 1e-05)",0.00478515625,-0.6747070312500001,9.780859375,"(0.01, 0.0, 0.0, 0.0, 0.01, 0.0, 0.0, 0.0, 0.01)"
2025/06/01/05:05:45.745167,282,1748754345,744737816,imu_link,-0.026087580933732785,0.021633585286273797,-0.6520151557451517,0.7574481254761364,"(0.001, 0.0, 0.0, 0.0, 0.001, 0.0, 0.0, 0.0, 0.001)",0.0,0.0,0.0,"(1e-05, 0.0, 0.0, 0.0, 1e-05, 0.0, 0.0, 0.0, 1e-05)",0.0,-0.6603515625,9.77607421875,"(0.01, 0.0, 0.0, 0.0, 0.01, 0.0, 0.0, 0.0, 0.01)"
2025/06/01/05:05:45.795614,283,1748754345,795157540,imu_link,-0.026087580933732785,0.021633585286273797,-0.6520151557451517,0.7574481254761364,"(0.001, 0.0, 0.0, 0.0, 0.001, 0.0, 0.0, 0.0, 0.001)",0.0,0.0,0.0,"(1e-05, 0.0, 0.0, 0.0, 1e-05, 0.0, 0.0, 0.0, 1e-05)",0.00478515625,-0.669921875,9.78564453125,"(0.01, 0.0, 0.0, 0.0, 0.01, 0.0, 0.0, 0.0, 0.01)"
2025/06/01/05:05:45.796387,284,1748754345,796124462,imu_link,-0.026087580933732785,0.021633585286273797,-0.6520151557451517,0.7574481254761364,"(0.001, 0.0, 0.0, 0.0, 0.001, 0.0, 0.0, 0.0, 0.001)",0.0,0.0,0.0,"(1e-05, 0.0, 0.0, 0.0, 1e-05, 0.0, 0.0, 0.0, 1e-05)",0.00478515625,-0.669921875,9.78564453125,"(0.01, 0.0, 0.0, 0.0, 0.01, 0.0, 0.0, 0.0, 0.01)"
2025/06/01/05:05:45.845589,285,1748754345,845182607,imu_link,-0.026087580933732785,0.021633585286273797,-0.6520151557451517,0.7574481254761364,"(0.001, 0.0, 0.0, 0.0, 0.001, 0.0, 0.0, 0.0, 0.001)",0.0,0.0,0.0,"(1e-05, 0.0, 0.0, 0.0, 1e-05, 0.0, 0.0, 0.0, 1e-05)",0.0,-0.66513671875,9.77607421875,"(0.01, 0.0, 0.0, 0.0, 0.01, 0.0, 0.0, 0.0, 0.01)"
2025/06/01/05:05:45.895576,286,1748754345,895265179,imu_link,-0.026087580933732785,0.021633585286273797,-0.6520151557451517,0.7574481254761364,"(0.001, 0.0, 0.0, 0.0, 0.001, 0.0, 0.0, 0.0, 0.001)",0.0,0.0,0.0,"(1e-05, 0.0, 0.0, 0.0, 1e-05, 0.0, 0.0, 0.0, 1e-05)",0.0,-0.669921875,9.77607421875,"(0.01, 0.0, 0.0, 0.0, 0.01, 0.0, 0.0, 0.0, 0.01)"
2025/06/01/05:05:45.896226,287,1748754345,896108884,imu_link,-0.026087580933732785,0.021633585286273797,-0.6520151557451517,0.7574481254761364,"(0.001, 0.0, 0.0, 0.0, 0.001, 0.0, 0.0, 0.0, 0.001)",0.0,0.0,0.0,"(1e-05, 0.0, 0.0, 0.0, 1e-05, 0.0, 0.0, 0.0, 1e-05)",0.0,-0.669921875,9.77607421875,"(0.01, 0.0, 0.0, 0.0, 0.01, 0.0, 0.0, 0.0, 0.01)"
2025/06/01/05:05:45.946247,288,1748754345,945680155,imu_link,-0.026087580933732785,0.021633585286273797,-0.6520151557451517,0.7574481254761364,"(0.001, 0.0, 0.0, 0.0, 0.001, 0.0, 0.0, 0.0, 0.001)",0.0,0.0,0.0,"(1e-05, 0.0, 0.0, 0.0, 1e-05, 0.0, 0.0, 0.0, 1e-05)",0.0,-0.6747070312500001,9.77607421875,"(0.01, 0.0, 0.0, 0.0, 0.01, 0.0, 0.0, 0.0, 0.01)"
2025/06/01/05:05:45.996651,289,1748754345,996137969,imu_link,-0.026087580933732785,0.021633585286273797,-0.6520151557451517,0.7574481254761364,"(0.001, 0.0, 0.0, 0.0, 0.001, 0.0, 0.0, 0.0, 0.001)",0.0,0.0,0.0,"(1e-05, 0.0, 0.0, 0.0, 1e-05, 0.0, 0.0, 0.0, 1e-05)",0.0,-0.66513671875,9.77607421875,"(0.01, 0.0, 0.0, 0.0, 0.01, 0.0, 0.0, 0.0, 0.01)"
2025/06/01/05:05:45.996696,290,1748754345,996203550,imu_link,-0.026087580933732785,0.021633585286273797,-0.6520151557451517,0.7574481254761364,"(0.001, 0.0, 0.0, 0.0, 0.001, 0.0, 0.0, 0.0, 0.001)",0.0,0.0,0.0,"(1e-05, 0.0, 0.0, 0.0, 1e-05, 0.0, 0.0, 0.0, 1e-05)",0.0,-0.66513671875,9.77607421875,"(0.01, 0.0, 0.0, 0.0, 0.01, 0.0, 0.0, 0.0, 0.01)"
2025/06/01/05:05:46.046553,291,1748754346,46165504,imu_link,-0.026087580933732785,0.021633585286273797,-0.6520151557451517,0.7574481254761364,"(0.001, 0.0, 0.0, 0.0, 0.001, 0.0, 0.0, 0.0, 0.001)",0.0,0.0,0.0,"(1e-05, 0.0, 0.0, 0.0, 1e-05, 0.0, 0.0, 0.0, 1e-05)",0.00478515625,-0.6747070312500001,9.77607421875,"(0.01, 0.0, 0.0, 0.0, 0.01, 0.0, 0.0, 0.0, 0.01)"
2025/06/01/05:05:46.096718,292,1748754346,96294417,imu_link,-0.026087580933732785,0.021633585286273797,-0.6520151557451517,0.7574481254761364,"(0.001, 0.0, 0.0, 0.0, 0.001, 0.0, 0.0, 0.0, 0.001)",0.0,0.0,0.0,"(1e-05, 0.0, 0.0, 0.0, 1e-05, 0.0, 0.0, 0.0, 1e-05)",0.00478515625,-0.6747070312500001,9.77607421875,"(0.01, 0.0, 0.0, 0.0, 0.01, 0.0, 0.0, 0.0, 0.01)"
2025/06/01/05:05:46.096736,293,1748754346,96568002,imu_link,-0.026087580933732785,0.021633585286273797,-0.6520151557451517,0.7574481254761364,"(0.001, 0.0, 0.0, 0.0, 0.001, 0.0, 0.0, 0.0, 0.001)",0.0,0.0,0.0,"(1e-05, 0.0, 0.0, 0.0, 1e-05, 0.0, 0.0, 0.0, 1e-05)",0.0,-0.669921875,9.77607421875,"(0.01, 0.0, 0.0, 0.0, 0.01, 0.0, 0.0, 0.0, 0.01)"
2025/06/01/05:05:46.147038,294,1748754346,146612690,imu_link,-0.026087580933732785,0.021633585286273797,-0.6520151557451517,0.7574481254761364,"(0.001, 0.0, 0.0, 0.0, 0.001, 0.0, 0.0, 0.0, 0.001)",0.0,0.0,0.0,"(1e-05, 0.0, 0.0, 0.0, 1e-05, 0.0, 0.0, 0.0, 1e-05)",0.0,-0.669921875,9.77607421875,"(0.01, 0.0, 0.0, 0.0, 0.01, 0.0, 0.0, 0.0, 0.01)"
2025/06/01/05:05:46.196927,295,1748754346,196420771,imu_link,-0.026087580933732785,0.021633585286273797,-0.6520151557451517,0.7574481254761364,"(0.001, 0.0, 0.0, 0.0, 0.001, 0.0, 0.0, 0.0, 0.001)",0.0,0.0,0.0,"(1e-05, 0.0, 0.0, 0.0, 1e-05, 0.0, 0.0, 0.0, 1e-05)",0.0,-0.669921875,9.77607421875,"(0.01, 0.0, 0.0, 0.0, 0.01, 0.0, 0.0, 0.0, 0.01)"
2025/06/01/05:05:46.197093,296,1748754346,196907889,imu_link,-0.026087580933732785,0.021633585286273797,-0.6520151557451517,0.7574481254761364,"(0.001, 0.0, 0.0, 0.0, 0.001, 0.0, 0.0, 0.0, 0.001)",0.0,0.0,0.0,"(1e-05, 0.0, 0.0, 0.0, 1e-05, 0.0, 0.0, 0.0, 1e-05)",0.00478515625,-0.6747070312500001,9.77607421875,"(0.01, 0.0, 0.0, 0.0, 0.01, 0.0, 0.0, 0.0, 0.01)"
2025/06/01/05:05:46.247426,297,1748754346,247099799,imu_link,-0.026087580933732785,0.021633585286273797,-0.6520151557451517,0.7574481254761364,"(0.001, 0.0, 0.0, 0.0, 0.001, 0.0, 0.0, 0.0, 0.001)",0.0,0.0,0.0,"(1e-05, 0.0, 0.0, 0.0, 1e-05, 0.0, 0.0, 0.0, 1e-05)",0.0,-0.66513671875,9.771289062500001,"(0.01, 0.0, 0.0, 0.0, 0.01, 0.0, 0.0, 0.0, 0.01)"
2025/06/01/05:05:46.296837,298,1748754346,296375469,imu_link,-0.026087580933732785,0.021633585286273797,-0.6520151557451517,0.7574481254761364,"(0.001, 0.0, 0.0, 0.0, 0.001, 0.0, 0.0, 0.0, 0.001)",0.0,0.0,0.0,"(1e-05, 0.0, 0.0, 0.0, 1e-05, 0.0, 0.0, 0.0, 1e-05)",0.0,-0.66513671875,9.771289062500001,"(0.01, 0.0, 0.0, 0.0, 0.01, 0.0, 0.0, 0.0, 0.01)"
2025/06/01/05:05:46.297596,299,1748754346,297361607,imu_link,-0.026087580933732785,0.021633585286273797,-0.6520151557451517,0.7574481254761364,"(0.001, 0.0, 0.0, 0.0, 0.001, 0.0, 0.0, 0.0, 0.001)",0.0,0.0,0.0,"(1e-05, 0.0, 0.0, 0.0, 1e-05, 0.0, 0.0, 0.0, 1e-05)",0.00478515625,-0.669921875,9.77607421875,"(0.01, 0.0, 0.0, 0.0, 0.01, 0.0, 0.0, 0.0, 0.01)"
2025/06/01/05:05:46.347939,300,1748754346,347605322,imu_link,-0.026087580933732785,0.021633585286273797,-0.6520151557451517,0.7574481254761364,"(0.001, 0.0, 0.0, 0.0, 0.001, 0.0, 0.0, 0.0, 0.001)",0.0,0.0,0.0,"(1e-05, 0.0, 0.0, 0.0, 1e-05, 0.0, 0.0, 0.0, 1e-05)",0.0,-0.669921875,9.77607421875,"(0.01, 0.0, 0.0, 0.0, 0.01, 0.0, 0.0, 0.0, 0.01)"
2025/06/01/05:05:46.396775,301,1748754346,396354462,imu_link,-0.026087580933732785,0.021633585286273797,-0.6520151557451517,0.7574481254761364,"(0.001, 0.0, 0.0, 0.0, 0.001, 0.0, 0.0, 0.0, 0.001)",0.0,0.0,0.0,"(1e-05, 0.0, 0.0, 0.0, 1e-05, 0.0, 0.0, 0.0, 1e-05)",0.0,-0.669921875,9.77607421875,"(0.01, 0.0, 0.0, 0.0, 0.01, 0.0, 0.0, 0.0, 0.01)"
2025/06/01/05:05:46.398153,302,1748754346,397821145,imu_link,-0.026087580933732785,0.021633585286273797,-0.6520151557451517,0.7574481254761364,"(0.001, 0.0, 0.0, 0.0, 0.001, 0.0, 0.0, 0.0, 0.001)",0.0,0.0,0.0,"(1e-05, 0.0, 0.0, 0.0, 1e-05, 0.0, 0.0, 0.0, 1e-05)",0.0,-0.669921875,9.77607421875,"(0.01, 0.0, 0.0, 0.0, 0.01, 0.0, 0.0, 0.0, 0.01)"
2025/06/01/05:05:46.448452,303,1748754346,448108651,imu_link,-0.026087580933732785,0.021633585286273797,-0.6520151557451517,0.7574481254761364,"(0.001, 0.0, 0.0, 0.0, 0.001, 0.0, 0.0, 0.0, 0.001)",0.0,0.0,0.0,"(1e-05, 0.0, 0.0, 0.0, 1e-05, 0.0, 0.0, 0.0, 1e-05)",0.0,-0.669921875,9.77607421875,"(0.01, 0.0, 0.0, 0.0, 0.01, 0.0, 0.0, 0.0, 0.01)"
2025/06/01/05:05:46.496828,304,1748754346,496383997,imu_link,-0.026087580933732785,0.021633585286273797,-0.6520151557451517,0.7574481254761364,"(0.001, 0.0, 0.0, 0.0, 0.001, 0.0, 0.0, 0.0, 0.001)",0.0,0.0,0.0,"(1e-05, 0.0, 0.0, 0.0, 1e-05, 0.0, 0.0, 0.0, 1e-05)",0.0,-0.669921875,9.77607421875,"(0.01, 0.0, 0.0, 0.0, 0.01, 0.0, 0.0, 0.0, 0.01)"
2025/06/01/05:05:46.499058,305,1748754346,498663049,imu_link,-0.026087580933732785,0.021633585286273797,-0.6520151557451517,0.7574481254761364,"(0.001, 0.0, 0.0, 0.0, 0.001, 0.0, 0.0, 0.0, 0.001)",0.0,0.0,0.0,"(1e-05, 0.0, 0.0, 0.0, 1e-05, 0.0, 0.0, 0.0, 1e-05)",0.00478515625,-0.66513671875,9.77607421875,"(0.01, 0.0, 0.0, 0.0, 0.01, 0.0, 0.0, 0.0, 0.01)"
2025/06/01/05:05:46.549021,306,1748754346,548656202,imu_link,-0.026087580933732785,0.021633585286273797,-0.6520151557451517,0.7574481254761364,"(0.001, 0.0, 0.0, 0.0, 0.001, 0.0, 0.0, 0.0, 0.001)",0.0,0.0,0.0,"(1e-05, 0.0, 0.0, 0.0, 1e-05, 0.0, 0.0, 0.0, 1e-05)",0.0,-0.66513671875,9.77607421875,"(0.01, 0.0, 0.0, 0.0, 0.01, 0.0, 0.0, 0.0, 0.01)"
2025/06/01/05:05:46.596920,307,1748754346,596381694,imu_link,-0.026087580933732785,0.021633585286273797,-0.6520151557451517,0.7574481254761364,"(0.001, 0.0, 0.0, 0.0, 0.001, 0.0, 0.0, 0.0, 0.001)",0.0,0.0,0.0,"(1e-05, 0.0, 0.0, 0.0, 1e-05, 0.0, 0.0, 0.0, 1e-05)",0.0,-0.66513671875,9.77607421875,"(0.01, 0.0, 0.0, 0.0, 0.01, 0.0, 0.0, 0.0, 0.01)"
2025/06/01/05:05:46.599550,308,1748754346,599072515,imu_link,-0.026087580933732785,0.021633585286273797,-0.6520151557451517,0.7574481254761364,"(0.001, 0.0, 0.0, 0.0, 0.001, 0.0, 0.0, 0.0, 0.001)",0.0,0.0,0.0,"(1e-05, 0.0, 0.0, 0.0, 1e-05, 0.0, 0.0, 0.0, 1e-05)",0.0,-0.669921875,9.780859375,"(0.01, 0.0, 0.0, 0.0, 0.01, 0.0, 0.0, 0.0, 0.01)"
2025/06/01/05:05:46.649640,309,1748754346,649242413,imu_link,-0.026087580933732785,0.021633585286273797,-0.6520151557451517,0.7574481254761364,"(0.001, 0.0, 0.0, 0.0, 0.001, 0.0, 0.0, 0.0, 0.001)",0.0,0.0,0.0,"(1e-05, 0.0, 0.0, 0.0, 1e-05, 0.0, 0.0, 0.0, 1e-05)",0.0,-0.669921875,9.77607421875,"(0.01, 0.0, 0.0, 0.0, 0.01, 0.0, 0.0, 0.0, 0.01)"
2025/06/01/05:05:46.696808,310,1748754346,696370555,imu_link,-0.026087580933732785,0.021633585286273797,-0.6520151557451517,0.7574481254761364,"(0.001, 0.0, 0.0, 0.0, 0.001, 0.0, 0.0, 0.0, 0.001)",0.0,0.0,0.0,"(1e-05, 0.0, 0.0, 0.0, 1e-05, 0.0, 0.0, 0.0, 1e-05)",0.0,-0.669921875,9.77607421875,"(0.01, 0.0, 0.0, 0.0, 0.01, 0.0, 0.0, 0.0, 0.01)"
2025/06/01/05:05:46.700156,311,1748754346,699738483,imu_link,-0.026087580933732785,0.021633585286273797,-0.6520151557451517,0.7574481254761364,"(0.001, 0.0, 0.0, 0.0, 0.001, 0.0, 0.0, 0.0, 0.001)",0.0,0.0,0.0,"(1e-05, 0.0, 0.0, 0.0, 1e-05, 0.0, 0.0, 0.0, 1e-05)",0.0,-0.66513671875,9.77607421875,"(0.01, 0.0, 0.0, 0.0, 0.01, 0.0, 0.0, 0.0, 0.01)"
2025/06/01/05:05:46.749983,312,1748754346,749614260,imu_link,-0.026087580933732785,0.021633585286273797,-0.6520151557451517,0.7574481254761364,"(0.001, 0.0, 0.0, 0.0, 0.001, 0.0, 0.0, 0.0, 0.001)",0.0,0.0,0.0,"(1e-05, 0.0, 0.0, 0.0, 1e-05, 0.0, 0.0, 0.0, 1e-05)",0.0,-0.669921875,9.77607421875,"(0.01, 0.0, 0.0, 0.0, 0.01, 0.0, 0.0, 0.0, 0.01)"
2025/06/01/05:05:46.796878,313,1748754346,796374363,imu_link,-0.026087580933732785,0.021633585286273797,-0.6520151557451517,0.7574481254761364,"(0.001, 0.0, 0.0, 0.0, 0.001, 0.0, 0.0, 0.0, 0.001)",0.0,0.0,0.0,"(1e-05, 0.0, 0.0, 0.0, 1e-05, 0.0, 0.0, 0.0, 1e-05)",0.0,-0.669921875,9.77607421875,"(0.01, 0.0, 0.0, 0.0, 0.01, 0.0, 0.0, 0.0, 0.01)"
2025/06/01/05:05:46.800466,314,1748754346,800092287,imu_link,-0.026087580933732785,0.021633585286273797,-0.6520151557451517,0.7574481254761364,"(0.001, 0.0, 0.0, 0.0, 0.001, 0.0, 0.0, 0.0, 0.001)",0.0,0.0,0.0,"(1e-05, 0.0, 0.0, 0.0, 1e-05, 0.0, 0.0, 0.0, 1e-05)",0.0,-0.669921875,9.77607421875,"(0.01, 0.0, 0.0, 0.0, 0.01, 0.0, 0.0, 0.0, 0.01)"
2025/06/01/05:05:46.850517,315,1748754346,850120654,imu_link,-0.026087580933732785,0.021633585286273797,-0.6520151557451517,0.7574481254761364,"(0.001, 0.0, 0.0, 0.0, 0.001, 0.0, 0.0, 0.0, 0.001)",0.0,0.0,0.0,"(1e-05, 0.0, 0.0, 0.0, 1e-05, 0.0, 0.0, 0.0, 1e-05)",0.0,-0.6747070312500001,9.77607421875,"(0.01, 0.0, 0.0, 0.0, 0.01, 0.0, 0.0, 0.0, 0.01)"
2025/06/01/05:05:46.896677,316,1748754346,896161050,imu_link,-0.026087580933732785,0.021633585286273797,-0.6520151557451517,0.7574481254761364,"(0.001, 0.0, 0.0, 0.0, 0.001, 0.0, 0.0, 0.0, 0.001)",0.0,0.0,0.0,"(1e-05, 0.0, 0.0, 0.0, 1e-05, 0.0, 0.0, 0.0, 1e-05)",0.0,-0.6747070312500001,9.77607421875,"(0.01, 0.0, 0.0, 0.0, 0.01, 0.0, 0.0, 0.0, 0.01)"
2025/06/01/05:05:46.900711,317,1748754346,900334604,imu_link,-0.026087580933732785,0.021633585286273797,-0.6520151557451517,0.7574481254761364,"(0.001, 0.0, 0.0, 0.0, 0.001, 0.0, 0.0, 0.0, 0.001)",0.0,0.0,0.0,"(1e-05, 0.0, 0.0, 0.0, 1e-05, 0.0, 0.0, 0.0, 1e-05)",0.0,-0.669921875,9.77607421875,"(0.01, 0.0, 0.0, 0.0, 0.01, 0.0, 0.0, 0.0, 0.01)"
2025/06/01/05:05:46.951026,318,1748754346,950611651,imu_link,-0.026087580933732785,0.021633585286273797,-0.6520151557451517,0.7574481254761364,"(0.001, 0.0, 0.0, 0.0, 0.001, 0.0, 0.0, 0.0, 0.001)",0.0,0.0,0.0,"(1e-05, 0.0, 0.0, 0.0, 1e-05, 0.0, 0.0, 0.0, 1e-05)",0.0,-0.6747070312500001,9.780859375,"(0.01, 0.0, 0.0, 0.0, 0.01, 0.0, 0.0, 0.0, 0.01)"
2025/06/01/05:05:46.996836,319,1748754346,996382240,imu_link,-0.026087580933732785,0.021633585286273797,-0.6520151557451517,0.7574481254761364,"(0.001, 0.0, 0.0, 0.0, 0.001, 0.0, 0.0, 0.0, 0.001)",0.0,0.0,0.0,"(1e-05, 0.0, 0.0, 0.0, 1e-05, 0.0, 0.0, 0.0, 1e-05)",0.0,-0.6747070312500001,9.780859375,"(0.01, 0.0, 0.0, 0.0, 0.01, 0.0, 0.0, 0.0, 0.01)"
2025/06/01/05:05:47.001179,320,1748754347,810593,imu_link,-0.026087580933732785,0.021633585286273797,-0.6520151557451517,0.7574481254761364,"(0.001, 0.0, 0.0, 0.0, 0.001, 0.0, 0.0, 0.0, 0.001)",0.0,0.0,0.0,"(1e-05, 0.0, 0.0, 0.0, 1e-05, 0.0, 0.0, 0.0, 1e-05)",0.0,-0.6747070312500001,9.771289062500001,"(0.01, 0.0, 0.0, 0.0, 0.01, 0.0, 0.0, 0.0, 0.01)"
2025/06/01/05:05:47.051702,321,1748754347,51267206,imu_link,-0.026087580933732785,0.021633585286273797,-0.6520151557451517,0.7574481254761364,"(0.001, 0.0, 0.0, 0.0, 0.001, 0.0, 0.0, 0.0, 0.001)",0.0,0.0,0.0,"(1e-05, 0.0, 0.0, 0.0, 1e-05, 0.0, 0.0, 0.0, 1e-05)",-0.014355468750000001,-0.6507812500000001,9.78564453125,"(0.01, 0.0, 0.0, 0.0, 0.01, 0.0, 0.0, 0.0, 0.01)"
2025/06/01/05:05:47.096863,322,1748754347,96379815,imu_link,-0.02608965490781115,0.021631084071397483,-0.6519425333203913,0.7575106331639694,"(0.001, 0.0, 0.0, 0.0, 0.001, 0.0, 0.0, 0.0, 0.001)",0.0,0.001065264417860243,0.001065264417860243,"(1e-05, 0.0, 0.0, 0.0, 1e-05, 0.0, 0.0, 0.0, 1e-05)",-0.014355468750000001,-0.6507812500000001,9.78564453125,"(0.01, 0.0, 0.0, 0.0, 0.01, 0.0, 0.0, 0.0, 0.01)"
2025/06/01/05:05:47.101626,323,1748754347,101235628,imu_link,-0.02608965490781115,0.021631084071397483,-0.6519425333203913,0.7575106331639694,"(0.001, 0.0, 0.0, 0.0, 0.001, 0.0, 0.0, 0.0, 0.001)",0.0,0.001065264417860243,0.001065264417860243,"(1e-05, 0.0, 0.0, 0.0, 1e-05, 0.0, 0.0, 0.0, 1e-05)",0.00478515625,-0.68427734375,9.78564453125,"(0.01, 0.0, 0.0, 0.0, 0.01, 0.0, 0.0, 0.0, 0.01)"
2025/06/01/05:05:47.152064,324,1748754347,151663197,imu_link,-0.026053342167284034,0.021599831943310305,-0.6519435694984147,0.7575118829507567,"(0.001, 0.0, 0.0, 0.0, 0.001, 0.0, 0.0, 0.0, 0.001)",0.0,0.0,0.0,"(1e-05, 0.0, 0.0, 0.0, 1e-05, 0.0, 0.0, 0.0, 1e-05)",0.0861328125,-0.6220703125,9.780859375,"(0.01, 0.0, 0.0, 0.0, 0.01, 0.0, 0.0, 0.0, 0.01)"
2025/06/01/05:05:47.196872,325,1748754347,196383873,imu_link,-0.026084592757928505,0.02156351782930936,-0.6519447787153118,0.7575108013918489,"(0.001, 0.0, 0.0, 0.0, 0.001, 0.0, 0.0, 0.0, 0.001)",0.0,0.0,0.0,"(1e-05, 0.0, 0.0, 0.0, 1e-05, 0.0, 0.0, 0.0, 1e-05)",0.0861328125,-0.6220703125,9.780859375,"(0.01, 0.0, 0.0, 0.0, 0.01, 0.0, 0.0, 0.0, 0.01)"
2025/06/01/05:05:47.202222,326,1748754347,201824335,imu_link,-0.026084592757928505,0.02156351782930936,-0.6519447787153118,0.7575108013918489,"(0.001, 0.0, 0.0, 0.0, 0.001, 0.0, 0.0, 0.0, 0.001)",0.0,0.0,0.0,"(1e-05, 0.0, 0.0, 0.0, 1e-05, 0.0, 0.0, 0.0, 1e-05)",0.0,-0.6794921875000001,9.790429687500001,"(0.01, 0.0, 0.0, 0.0, 0.01, 0.0, 0.0, 0.0, 0.01)"
2025/06/01/05:05:47.252451,327,1748754347,252053227,imu_link,-0.026084592757928505,0.02156351782930936,-0.6519447787153118,0.7575108013918489,"(0.001, 0.0, 0.0, 0.0, 0.001, 0.0, 0.0, 0.0, 0.001)",-0.001065264417860243,0.0,0.0,"(1e-05, 0.0, 0.0, 0.0, 1e-05, 0.0, 0.0, 0.0, 1e-05)",-0.00478515625,-0.669921875,9.77607421875,"(0.01, 0.0, 0.0, 0.0, 0.01, 0.0, 0.0, 0.0, 0.01)"
2025/06/01/05:05:47.297029,328,1748754347,296504828,imu_link,-0.026053342167284034,0.021599831943310305,-0.6519435694984147,0.7575118829507567,"(0.001, 0.0, 0.0, 0.0, 0.001, 0.0, 0.0, 0.0, 0.001)",0.0,0.0,0.0,"(1e-05, 0.0, 0.0, 0.0, 1e-05, 0.0, 0.0, 0.0, 1e-05)",-0.00478515625,-0.669921875,9.77607421875,"(0.01, 0.0, 0.0, 0.0, 0.01, 0.0, 0.0, 0.0, 0.01)"
2025/06/01/05:05:47.302757,329,1748754347,302373499,imu_link,-0.026053342167284034,0.021599831943310305,-0.6519435694984147,0.7575118829507567,"(0.001, 0.0, 0.0, 0.0, 0.001, 0.0, 0.0, 0.0, 0.001)",0.0,0.0,0.0,"(1e-05, 0.0, 0.0, 0.0, 1e-05, 0.0, 0.0, 0.0, 1e-05)",-0.0765625,-0.6890625,9.80478515625,"(0.01, 0.0, 0.0, 0.0, 0.01, 0.0, 0.0, 0.0, 0.01)"
2025/06/01/05:05:47.353085,330,1748754347,352665588,imu_link,-0.026084592757928505,0.02156351782930936,-0.6519447787153118,0.7575108013918489,"(0.001, 0.0, 0.0, 0.0, 0.001, 0.0, 0.0, 0.0, 0.001)",0.002130528835720486,-0.001065264417860243,0.001065264417860243,"(1e-05, 0.0, 0.0, 0.0, 1e-05, 0.0, 0.0, 0.0, 1e-05)",0.04306640625,-0.6794921875000001,9.771289062500001,"(0.01, 0.0, 0.0, 0.0, 0.01, 0.0, 0.0, 0.0, 0.01)"
2025/06/01/05:05:47.396857,331,1748754347,396369760,imu_link,-0.026056448184736142,0.02159608497068367,-0.6518346244457724,0.7576056315759366,"(0.001, 0.0, 0.0, 0.0, 0.001, 0.0, 0.0, 0.0, 0.001)",0.0,0.001065264417860243,0.001065264417860243,"(1e-05, 0.0, 0.0, 0.0, 1e-05, 0.0, 0.0, 0.0, 1e-05)",0.04306640625,-0.6794921875000001,9.771289062500001,"(0.01, 0.0, 0.0, 0.0, 0.01, 0.0, 0.0, 0.0, 0.01)"
2025/06/01/05:05:47.403359,332,1748754347,402863023,imu_link,-0.026056448184736142,0.02159608497068367,-0.6518346244457724,0.7576056315759366,"(0.001, 0.0, 0.0, 0.0, 0.001, 0.0, 0.0, 0.0, 0.001)",0.0,0.001065264417860243,0.001065264417860243,"(1e-05, 0.0, 0.0, 0.0, 1e-05, 0.0, 0.0, 0.0, 1e-05)",0.03828125,-0.6794921875000001,9.790429687500001,"(0.01, 0.0, 0.0, 0.0, 0.01, 0.0, 0.0, 0.0, 0.01)"
2025/06/01/05:05:47.453427,333,1748754347,453052594,imu_link,-0.026057483404137386,0.021594835880551007,-0.6517983064323519,0.757636877635885,"(0.001, 0.0, 0.0, 0.0, 0.001, 0.0, 0.0, 0.0, 0.001)",0.0,0.001065264417860243,0.001065264417860243,"(1e-05, 0.0, 0.0, 0.0, 1e-05, 0.0, 0.0, 0.0, 1e-05)",-0.057421875000000004,-0.6268554687500001,9.8287109375,"(0.01, 0.0, 0.0, 0.0, 0.01, 0.0, 0.0, 0.0, 0.01)"
2025/06/01/05:05:47.496857,334,1748754347,496381473,imu_link,-0.026057483404137386,0.021594835880551007,-0.6517983064323519,0.757636877635885,"(0.001, 0.0, 0.0, 0.0, 0.001, 0.0, 0.0, 0.0, 0.001)",-0.001065264417860243,0.0,0.0,"(1e-05, 0.0, 0.0, 0.0, 1e-05, 0.0, 0.0, 0.0, 1e-05)",-0.057421875000000004,-0.6268554687500001,9.8287109375,"(0.01, 0.0, 0.0, 0.0, 0.01, 0.0, 0.0, 0.0, 0.01)"
2025/06/01/05:05:47.503802,335,1748754347,503385558,imu_link,-0.026057483404137386,0.021594835880551007,-0.6517983064323519,0.757636877635885,"(0.001, 0.0, 0.0, 0.0, 0.001, 0.0, 0.0, 0.0, 0.001)",-0.001065264417860243,0.0,0.0,"(1e-05, 0.0, 0.0, 0.0, 1e-05, 0.0, 0.0, 0.0, 1e-05)",0.00478515625,-0.66513671875,9.790429687500001,"(0.01, 0.0, 0.0, 0.0, 0.01, 0.0, 0.0, 0.0, 0.01)"
2025/06/01/05:05:47.554031,336,1748754347,553618848,imu_link,-0.026057483404137386,0.021594835880551007,-0.6517983064323519,0.757636877635885,"(0.001, 0.0, 0.0, 0.0, 0.001, 0.0, 0.0, 0.0, 0.001)",0.0,0.001065264417860243,0.0,"(1e-05, 0.0, 0.0, 0.0, 1e-05, 0.0, 0.0, 0.0, 1e-05)",0.0,-0.6747070312500001,9.771289062500001,"(0.01, 0.0, 0.0, 0.0, 0.01, 0.0, 0.0, 0.0, 0.01)"
2025/06/01/05:05:47.596916,337,1748754347,596354815,imu_link,-0.026057483404137386,0.021594835880551007,-0.6517983064323519,0.757636877635885,"(0.001, 0.0, 0.0, 0.0, 0.001, 0.0, 0.0, 0.0, 0.001)",0.0,0.0,0.0,"(1e-05, 0.0, 0.0, 0.0, 1e-05, 0.0, 0.0, 0.0, 1e-05)",0.0,-0.6747070312500001,9.771289062500001,"(0.01, 0.0, 0.0, 0.0, 0.01, 0.0, 0.0, 0.0, 0.01)"
2025/06/01/05:05:47.604227,338,1748754347,603812936,imu_link,-0.026057483404137386,0.021594835880551007,-0.6517983064323519,0.757636877635885,"(0.001, 0.0, 0.0, 0.0, 0.001, 0.0, 0.0, 0.0, 0.001)",0.0,0.0,0.0,"(1e-05, 0.0, 0.0, 0.0, 1e-05, 0.0, 0.0, 0.0, 1e-05)",-0.014355468750000001,-0.68427734375,9.771289062500001,"(0.01, 0.0, 0.0, 0.0, 0.01, 0.0, 0.0, 0.0, 0.01)"
2025/06/01/05:05:47.654457,339,1748754347,653994742,imu_link,-0.026057483404137386,0.021594835880551007,-0.6517983064323519,0.757636877635885,"(0.001, 0.0, 0.0, 0.0, 0.001, 0.0, 0.0, 0.0, 0.001)",0.0,0.0,0.001065264417860243,"(1e-05, 0.0, 0.0, 0.0, 1e-05, 0.0, 0.0, 0.0, 1e-05)",0.0,-0.6747070312500001,9.780859375,"(0.01, 0.0, 0.0, 0.0, 0.01, 0.0, 0.0, 0.0, 0.01)"
2025/06/01/05:05:47.696842,340,1748754347,696372980,imu_link,-0.026057483404137386,0.021594835880551007,-0.6517983064323519,0.757636877635885,"(0.001, 0.0, 0.0, 0.0, 0.001, 0.0, 0.0, 0.0, 0.001)",0.0,0.0,0.0,"(1e-05, 0.0, 0.0, 0.0, 1e-05, 0.0, 0.0, 0.0, 1e-05)",0.0,-0.6747070312500001,9.780859375,"(0.01, 0.0, 0.0, 0.0, 0.01, 0.0, 0.0, 0.0, 0.01)"
2025/06/01/05:05:47.704891,341,1748754347,704365346,imu_link,-0.026057483404137386,0.021594835880551007,-0.6517983064323519,0.757636877635885,"(0.001, 0.0, 0.0, 0.0, 0.001, 0.0, 0.0, 0.0, 0.001)",0.0,0.0,0.0,"(1e-05, 0.0, 0.0, 0.0, 1e-05, 0.0, 0.0, 0.0, 1e-05)",0.00478515625,-0.66513671875,9.771289062500001,"(0.01, 0.0, 0.0, 0.0, 0.01, 0.0, 0.0, 0.0, 0.01)"
2025/06/01/05:05:47.755041,342,1748754347,754652136,imu_link,-0.026057483404137386,0.021594835880551007,-0.6517983064323519,0.757636877635885,"(0.001, 0.0, 0.0, 0.0, 0.001, 0.0, 0.0, 0.0, 0.001)",0.0,0.0,0.001065264417860243,"(1e-05, 0.0, 0.0, 0.0, 1e-05, 0.0, 0.0, 0.0, 1e-05)",0.00478515625,-0.66513671875,9.77607421875,"(0.01, 0.0, 0.0, 0.0, 0.01, 0.0, 0.0, 0.0, 0.01)"
2025/06/01/05:05:47.796902,343,1748754347,796446276,imu_link,-0.026057483404137386,0.021594835880551007,-0.6517983064323519,0.757636877635885,"(0.001, 0.0, 0.0, 0.0, 0.001, 0.0, 0.0, 0.0, 0.001)",0.0,0.0,0.0,"(1e-05, 0.0, 0.0, 0.0, 1e-05, 0.0, 0.0, 0.0, 1e-05)",0.00478515625,-0.66513671875,9.77607421875,"(0.01, 0.0, 0.0, 0.0, 0.01, 0.0, 0.0, 0.0, 0.01)"
2025/06/01/05:05:47.805213,344,1748754347,804836256,imu_link,-0.026057483404137386,0.021594835880551007,-0.6517983064323519,0.757636877635885,"(0.001, 0.0, 0.0, 0.0, 0.001, 0.0, 0.0, 0.0, 0.001)",0.0,0.0,0.0,"(1e-05, 0.0, 0.0, 0.0, 1e-05, 0.0, 0.0, 0.0, 1e-05)",0.00478515625,-0.669921875,9.77607421875,"(0.01, 0.0, 0.0, 0.0, 0.01, 0.0, 0.0, 0.0, 0.01)"
2025/06/01/05:05:47.855369,345,1748754347,854985382,imu_link,-0.026057483404137386,0.021594835880551007,-0.6517983064323519,0.757636877635885,"(0.001, 0.0, 0.0, 0.0, 0.001, 0.0, 0.0, 0.0, 0.001)",0.0,0.0,0.001065264417860243,"(1e-05, 0.0, 0.0, 0.0, 1e-05, 0.0, 0.0, 0.0, 1e-05)",0.00478515625,-0.6747070312500001,9.77607421875,"(0.01, 0.0, 0.0, 0.0, 0.01, 0.0, 0.0, 0.0, 0.01)"
2025/06/01/05:05:47.896940,346,1748754347,896383992,imu_link,-0.02605851856365993,0.021593586740794576,-0.6517619869211339,0.7576681219548245,"(0.001, 0.0, 0.0, 0.0, 0.001, 0.0, 0.0, 0.0, 0.001)",0.0,0.0,0.0,"(1e-05, 0.0, 0.0, 0.0, 1e-05, 0.0, 0.0, 0.0, 1e-05)",0.00478515625,-0.6747070312500001,9.77607421875,"(0.01, 0.0, 0.0, 0.0, 0.01, 0.0, 0.0, 0.0, 0.01)"
2025/06/01/05:05:47.905644,347,1748754347,905224142,imu_link,-0.02605851856365993,0.021593586740794576,-0.6517619869211339,0.7576681219548245,"(0.001, 0.0, 0.0, 0.0, 0.001, 0.0, 0.0, 0.0, 0.001)",0.0,0.0,0.0,"(1e-05, 0.0, 0.0, 0.0, 1e-05, 0.0, 0.0, 0.0, 1e-05)",0.0,-0.6747070312500001,9.77607421875,"(0.01, 0.0, 0.0, 0.0, 0.01, 0.0, 0.0, 0.0, 0.01)"
2025/06/01/05:05:47.955876,348,1748754347,955446493,imu_link,-0.02605851856365993,0.021593586740794576,-0.6517619869211339,0.7576681219548245,"(0.001, 0.0, 0.0, 0.0, 0.001, 0.0, 0.0, 0.0, 0.001)",0.0,0.0,0.0,"(1e-05, 0.0, 0.0, 0.0, 1e-05, 0.0, 0.0, 0.0, 1e-05)",0.0,-0.66513671875,9.77607421875,"(0.01, 0.0, 0.0, 0.0, 0.01, 0.0, 0.0, 0.0, 0.01)"
2025/06/01/05:05:47.996866,349,1748754347,996385867,imu_link,-0.02605851856365993,0.021593586740794576,-0.6517619869211339,0.7576681219548245,"(0.001, 0.0, 0.0, 0.0, 0.001, 0.0, 0.0, 0.0, 0.001)",0.0,0.0,0.0,"(1e-05, 0.0, 0.0, 0.0, 1e-05, 0.0, 0.0, 0.0, 1e-05)",0.0,-0.66513671875,9.77607421875,"(0.01, 0.0, 0.0, 0.0, 0.01, 0.0, 0.0, 0.0, 0.01)"
2025/06/01/05:05:48.006035,350,1748754348,5649028,imu_link,-0.02605851856365993,0.021593586740794576,-0.6517619869211339,0.7576681219548245,"(0.001, 0.0, 0.0, 0.0, 0.001, 0.0, 0.0, 0.0, 0.001)",0.0,0.0,0.0,"(1e-05, 0.0, 0.0, 0.0, 1e-05, 0.0, 0.0, 0.0, 1e-05)",0.00478515625,-0.669921875,9.77607421875,"(0.01, 0.0, 0.0, 0.0, 0.01, 0.0, 0.0, 0.0, 0.01)"
2025/06/01/05:05:48.056350,351,1748754348,55933638,imu_link,-0.02605851856365993,0.021593586740794576,-0.6517619869211339,0.7576681219548245,"(0.001, 0.0, 0.0, 0.0, 0.001, 0.0, 0.0, 0.0, 0.001)",0.0,0.0,0.0,"(1e-05, 0.0, 0.0, 0.0, 1e-05, 0.0, 0.0, 0.0, 1e-05)",0.0095703125,-0.66513671875,9.77607421875,"(0.01, 0.0, 0.0, 0.0, 0.01, 0.0, 0.0, 0.0, 0.01)"
2025/06/01/05:05:48.096872,352,1748754348,96380256,imu_link,-0.02605851856365993,0.021593586740794576,-0.6517619869211339,0.7576681219548245,"(0.001, 0.0, 0.0, 0.0, 0.001, 0.0, 0.0, 0.0, 0.001)",0.0,0.0,0.0,"(1e-05, 0.0, 0.0, 0.0, 1e-05, 0.0, 0.0, 0.0, 1e-05)",0.0095703125,-0.66513671875,9.77607421875,"(0.01, 0.0, 0.0, 0.0, 0.01, 0.0, 0.0, 0.0, 0.01)"
2025/06/01/05:05:48.106537,353,1748754348,106152798,imu_link,-0.02605851856365993,0.021593586740794576,-0.6517619869211339,0.7576681219548245,"(0.001, 0.0, 0.0, 0.0, 0.001, 0.0, 0.0, 0.0, 0.001)",0.0,0.0,0.0,"(1e-05, 0.0, 0.0, 0.0, 1e-05, 0.0, 0.0, 0.0, 1e-05)",0.0,-0.66513671875,9.771289062500001,"(0.01, 0.0, 0.0, 0.0, 0.01, 0.0, 0.0, 0.0, 0.01)"
